A_Lat,A_Lon,A_Alt,A_Spd,A_Crs,A_R,A_Sat,A_HDOP,A_NSatView,B_Lat,B_Lon,B_Alt,B_Spd,B_Crs,B_R,B_Sat,B_HDOP,B_NSatView,C_Lat,C_Lon,C_Alt,C_Spd,C_Crs,C_R,C_Sat,C_HDOP,C_NSatView,Fused_Lat,Fused_Lon,Corrected_Lat,Corrected_Lon,Roll,Pitch,Yaw,Ax,Ay,Az,Gx,Gy,Gz,Timestamp
24.15365617,120.70381017,113.8,0.5,0.0,5.45,9,1.09,0,24.1536335,120.70389667,147.4,0.185,0.0,6.949999999999999,7,1.39,0,24.153761,120.7039005,120.4,0.333,0.0,6.949999999999999,7,1.39,0,24.153676253888275,120.70385339582722,24.153676253888275,120.70385339582722,158.94,284.05,298.08,19.14,22.35,19.36,87.89,102.63,88.90,2025-10-09T17:23:42.920329
24.15365633,120.70381033,113.7,0.37,0.0,5.45,9,1.09,0,24.1536335,120.70389667,147.9,0.185,0.0,6.949999999999999,8,1.39,0,24.153761,120.70390067,120.0,0.315,0.0,6.949999999999999,8,1.39,0,24.15367770101342,120.70385646673816,24.15367659887547,120.70385412350467,146.28,281.24,302.30,19.31,21.17,21.23,88.68,97.22,97.48,2025-10-09T17:23:43.125712
24.1536565,120.70381,113.7,0.074,0.0,5.45,9,1.09,0,24.15363333,120.70389683,147.9,0.167,0.0,6.949999999999999,8,1.39,14,24.153761,120.70390083,120.0,0.241,0.0,6.949999999999999,8,1.39,0,24.15366947830369,120.70386391369891,24.153675283929726,120.70385616499742,149.10,282.65,300.89,19.53,23.82,20.67,89.68,109.37,94.93,2025-10-09T17:23:43.327950
24.15365667,120.7038095,113.7,0.685,0.0,5.45,9,1.09,0,24.15363317,120.70389717,147.9,0.204,0.0,6.949999999999999,8,1.39,14,24.15376117,120.70390017,119.9,0.13,0.0,6.949999999999999,8,1.39,0,24.15366951678029,120.70386371447564,24.153674091850608,120.70385792343055,144.88,278.43,293.86,14.04,21.07,22.23,64.47,96.76,102.09,2025-10-09T17:23:43.530368
24.15365717,120.70380933,113.7,0.111,0.0,5.45,9,1.09,0,24.153633,120.70389717,147.9,0.074,0.0,6.949999999999999,8,1.39,14,24.15376133,120.7039,120.0,0.111,0.0,5.05,8,1.01,0,24.153684313516315,120.70386942301228,24.15367634719606,120.70386116743917,150.50,281.24,284.02,17.37,21.05,22.33,79.75,96.68,102.55,2025-10-09T17:23:43.733264
24.1536575,120.70380967,113.6,0.13,0.0,5.45,9,1.09,0,24.15363283,120.70389767,147.9,0.222,0.0,6.949999999999999,8,1.39,14,24.15376133,120.7039,119.9,0.167,0.0,6.949999999999999,8,1.39,0,24.153669738052812,120.70386394372763,24.15367501849371,120.70386242935054,171.60,289.68,222.14,21.32,21.95,20.39,97.89,100.78,93.64,2025-10-09T17:23:43.936133
24.1536575,120.70380967,113.4,0.13,0.0,5.45,9,1.09,0,24.15363283,120.70389767,147.9,0.222,0.0,6.949999999999999,8,1.39,14,24.15376167,120.7038995,119.9,0.278,0.0,6.949999999999999,8,1.39,0,24.153669810324256,120.7038638374461,24.15367377071871,120.70386343660499,174.41,303.74,143.39,14.87,18.24,21.04,68.27,83.77,96.60,2025-10-09T17:23:44.138553
24.15365767,120.70381,113.4,0.093,0.0,5.45,9,1.09,0,24.15363267,120.70389767,147.9,0.278,0.0,6.949999999999999,8,1.39,14,24.15376167,120.70389933,119.8,0.556,0.0,6.949999999999999,7,1.39,0,24.1536673053605,120.70386296336574,24.153672064878474,120.70386399203497,175.81,296.71,66.05,15.23,20.81,20.88,69.95,95.57,95.89,2025-10-09T17:23:44.341128
24.15365767,120.70381,113.3,0.241,0.0,5.45,9,1.09,0,24.15363267,120.70389733,148.0,0.148,0.0,6.949999999999999,8,1.39,14,24.15376183,120.70389867,119.9,0.407,0.0,6.949999999999999,7,1.39,0,24.153667335931615,120.70386269805212,24.15367060101344,120.70386432339785,174.41,302.33,40.74,20.51,20.22,24.02,94.16,92.83,110.28,2025-10-09T17:23:44.543576
24.15365783,120.70381033,113.4,0.296,0.0,5.45,9,1.09,0,24.1536325,120.7038975,148.0,0.315,0.0,6.949999999999999,8,1.39,14,24.15376167,120.70389833,120.0,0.185,0.0,6.949999999999999,7,1.39,0,24.153667299675973,120.70386283452605,24.15366937609285,120.70386457093765,165.97,291.08,32.30,19.06,19.11,21.44,87.50,87.75,98.45,2025-10-09T17:23:44.746107
24.15365783,120.7038105,113.4,0.019,0.0,5.45,9,1.09,0,24.1536325,120.70389717,148.0,0.167,0.0,6.949999999999999,8,1.39,14,24.15376167,120.70389783,120.0,0.426,0.0,6.949999999999999,7,1.39,0,24.153667299675973,120.70386267179221,24.153668378060907,120.70386469185705,175.81,310.77,317.77,13.72,20.94,21.17,63.02,96.15,97.22,2025-10-09T17:23:44.948728
24.15365783,120.70381083,113.3,0.074,0.0,5.45,9,1.09,0,24.1536325,120.703897,148.0,0.222,0.0,6.949999999999999,8,1.39,14,24.15376183,120.703898,119.9,0.13,0.0,6.949999999999999,7,1.39,0,24.153667330247085,120.70386276650379,24.153667587454947,120.70386477350249,180.03,306.55,272.77,20.10,22.38,19.86,92.28,102.77,91.19,2025-10-09T17:23:45.152196
24.15365783,120.703812,113.3,0.389,0.0,5.45,9,1.09,0,24.15363233,120.703897,148.0,0.111,0.0,6.949999999999999,8,1.39,14,24.15376167,120.7038985,119.9,0.167,0.0,6.949999999999999,7,1.39,0,24.15366723007209,120.7038633294488,24.153666938878438,120.70386493450464,181.44,299.52,212.30,21.05,19.68,20.41,96.66,90.35,93.74,2025-10-09T17:23:45.354545
24.15365817,120.70381267,113.3,0.185,0.0,5.45,9,1.09,0,24.15363233,120.70389717,148.0,0.13,0.0,6.949999999999999,8,1.39,14,24.1537615,120.70389867,119.7,0.093,0.0,6.949999999999999,7,1.39,0,24.15366733341891,120.70386369919676,24.15366645128539,120.70386512011879,177.22,312.18,168.71,16.78,18.40,18.73,77.06,84.48,85.99,2025-10-09T17:23:45.557226
24.15365817,120.70381383,113.2,0.315,0.0,5.45,9,1.09,0,24.153632,120.7038975,148.0,0.278,0.0,6.949999999999999,8,1.39,14,24.15376133,120.703899,119.7,0.463,0.0,6.949999999999999,7,1.39,0,24.15366716582368,120.70386436077838,24.153666038389694,120.70386538735202,160.35,296.71,167.30,16.49,18.56,24.83,75.73,85.25,114.02,2025-10-09T17:23:45.760078
24.1536585,120.70381417,113.0,0.037,0.0,5.45,10,1.09,0,24.15363183,120.7038975,148.1,0.148,0.0,6.949999999999999,8,1.39,14,24.153761,120.7038995,119.7,0.278,0.0,6.949999999999999,7,1.39,0,24.153666796722007,120.70386244910755,24.153665638770676,120.70386522163228,177.22,295.30,163.08,16.76,20.06,20.89,76.95,92.11,95.90,2025-10-09T17:23:45.962197
24.15365883,120.70381467,112.9,0.037,0.0,5.45,9,1.09,0,24.15363167,120.70389767,148.1,0.167,0.0,6.949999999999999,8,1.39,14,24.15376083,120.70389933,119.7,0.296,0.0,6.949999999999999,7,1.39,0,24.15366719884286,120.70386482901179,24.15366540031882,120.70386551317459,178.63,293.90,161.67,16.05,17.39,20.99,73.71,79.84,96.40,2025-10-09T17:23:46.165459
24.15365917,120.70381533,112.8,0.056,0.0,5.45,9,1.09,0,24.1536315,120.70389817,148.1,0.278,0.0,6.949999999999999,8,1.39,14,24.15376083,120.70389883,119.7,0.407,0.0,6.949999999999999,7,1.39,0,24.153667265067604,120.70386520186167,24.153665229363636,120.70386581506861,174.41,298.11,163.08,13.14,21.72,18.21,60.33,99.72,83.62,2025-10-09T17:23:46.367988
24.15365933,120.70381583,112.6,0.574,0.0,5.45,9,1.09,0,24.1536315,120.70389817,148.1,0.278,0.0,6.949999999999999,8,1.39,14,24.15376083,120.7038985,119.8,0.278,0.0,6.949999999999999,7,1.39,0,24.153667328986955,120.70386533855671,24.153665112515128,120.70386608413784,168.78,282.65,163.08,15.54,20.13,19.96,71.34,92.43,91.64,2025-10-09T17:23:46.570083
24.15365967,120.7038165,112.6,0.333,0.0,5.45,9,1.09,0,24.15363133,120.7038985,148.1,0.056,0.0,6.949999999999999,8,1.39,14,24.15376083,120.70389817,119.7,0.444,0.0,6.949999999999999,8,1.39,0,24.15366987780983,120.70386654159697,24.153665452243207,120.7038665112425,168.78,285.46,164.49,15.91,20.28,22.50,73.07,93.12,103.34,2025-10-09T17:23:46.772439
24.15365967,120.7038165,112.4,0.333,0.0,5.45,9,1.09,0,24.15363117,120.7038985,148.2,0.074,0.0,6.949999999999999,8,1.39,14,24.15376067,120.70389783,119.8,0.204,0.0,6.949999999999999,8,1.39,0,24.15366978003082,120.70386646932552,24.153665745658767,120.70386685697052,165.97,284.05,161.67,15.57,19.83,20.87,71.51,91.07,95.85,2025-10-09T17:23:46.974720
24.15365967,120.7038165,112.2,0.204,0.0,5.45,9,1.09,0,24.15363067,120.703899,148.3,0.148,0.0,6.949999999999999,8,1.39,14,24.15376067,120.70389733,119.8,0.204,0.0,6.949999999999999,8,1.39,0,24.153669580752947,120.70386656232188,24.153665982466414,120.70386716134261,170.19,282.65,161.67,14.84,18.88,22.50,68.15,86.71,103.32,2025-10-09T17:23:47.179387
24.15366,120.70381717,112.3,0.296,0.0,5.45,9,1.09,0,24.15363033,120.70389883,148.3,0.241,0.0,6.949999999999999,8,1.39,14,24.153761,120.70389717,119.9,0.259,0.0,6.949999999999999,8,1.39,0,24.153669643720594,120.7038667211077,24.15366620835325,120.70386744389381,175.81,286.86,160.27,18.67,21.92,23.58,85.74,100.63,108.29,2025-10-09T17:23:47.383047
24.15366017,120.70381717,112.1,0.222,0.0,5.45,9,1.09,0,24.15363017,120.70389883,148.4,0.204,0.0,6.949999999999999,8,1.39,14,24.15376133,120.70389617,119.9,0.167,0.0,6.949999999999999,8,1.39,0,24.153669716207286,120.70386650854462,24.153666430272192,120.70386764685766,165.97,279.83,163.08,17.95,22.10,18.64,82.44,101.49,85.60,2025-10-09T17:23:47.585074
24.1536605,120.70381817,112.1,0.296,0.0,5.45,9,1.09,0,24.15363,120.70389883,148.4,0.167,0.0,6.949999999999999,8,1.39,14,24.15376117,120.70389517,120.0,0.074,0.0,6.949999999999999,8,1.39,0,24.153669742773513,120.70386668486275,24.153666640207106,120.7038678397856,164.56,282.65,163.08,14.34,20.20,20.02,65.85,92.74,91.95,2025-10-09T17:23:47.787560
24.15366083,120.70381917,112.0,0.222,0.0,5.45,9,1.09,0,24.15363,120.70389917,148.3,0.148,0.0,6.949999999999999,8,1.39,14,24.15376133,120.70389467,120.0,0.167,0.0,6.949999999999999,8,1.39,0,24.153669905114395,120.70386710297133,24.153666857546277,120.70386805976226,157.53,268.58,165.89,14.31,21.00,18.22,65.72,96.41,83.65,2025-10-09T17:23:47.990308
24.15366117,120.7038195,111.8,0.111,0.0,5.45,9,1.09,0,24.15363,120.70389933,148.3,0.148,0.0,6.949999999999999,8,1.39,14,24.15376133,120.703894,120.1,0.111,0.0,6.949999999999999,8,1.39,0,24.153670037333995,120.7038671526538,24.15366707669477,120.70386825237485,156.13,284.05,167.30,17.59,21.28,23.74,80.75,97.73,109.03,2025-10-09T17:23:48.193094
24.1536615,120.70382,111.7,0.019,0.0,5.45,9,1.09,0,24.15362983,120.70389933,148.4,0.259,0.0,6.949999999999999,8,1.39,14,24.15376117,120.70389267,120.2,0.241,0.0,6.949999999999999,8,1.39,0,24.15367006390022,120.7038670643855,24.153667144553864,120.70386867797677,160.35,288.27,167.30,21.15,21.15,17.68,97.13,97.10,81.20,2025-10-09T17:23:48.596994
24.15366167,120.70382083,111.6,0.241,0.0,5.45,9,1.09,0,24.15362967,120.70389967,148.4,0.259,0.0,6.949999999999999,8,1.39,14,24.15376117,120.703892,120.3,0.13,0.0,6.949999999999999,8,1.39,0,24.153670066241105,120.7038673802486,24.153667391720855,120.70386878870295,154.72,278.43,170.11,18.26,19.78,21.10,83.86,90.82,96.90,2025-10-09T17:23:48.800458
24.153662,120.703821,111.6,0.204,0.0,5.45,9,1.09,0,24.15362967,120.70389967,148.5,0.259,0.0,6.949999999999999,8,1.39,14,24.15376117,120.703892,120.3,0.13,0.0,6.949999999999999,8,1.39,0,24.15367019457189,120.70386744635842,24.153667631678147,120.70386888600986,158.94,296.71,170.11,17.74,20.20,18.30,81.44,92.77,84.02,2025-10-09T17:23:49.003122
24.15366217,120.70382167,111.4,0.037,0.0,5.45,9,1.09,0,24.15362933,120.70390017,148.6,0.093,0.0,6.949999999999999,8,1.39,14,24.1537615,120.70389133,120.4,0.333,0.0,6.949999999999999,8,1.39,0,24.153670195318554,120.70386776376941,24.15366784809524,120.70386900844225,154.72,279.83,171.52,18.98,19.30,21.49,87.17,88.64,98.70,2025-10-09T17:23:49.206547
24.15366317,120.70382283,111.1,0.204,0.0,5.45,9,1.09,14,24.15362933,120.70390017,148.6,0.167,0.0,6.949999999999999,8,1.39,14,24.15376133,120.70389,120.5,0.222,0.0,6.949999999999999,9,1.39,0,24.153670683890823,120.70385810894093,24.153668023393475,120.703867946843,151.91,278.43,171.52,13.05,21.52,22.55,59.92,98.83,103.56,2025-10-09T17:23:49.609261
24.15366367,120.7038235,110.9,0.685,0.0,5.45,9,1.09,14,24.153629,120.7039005,148.6,0.167,0.0,6.949999999999999,8,1.39,14,24.15376133,120.70388967,120.6,0.204,0.0,6.949999999999999,9,1.39,0,24.153670845022024,120.70385849705009,24.153668306091618,120.70386680912776,149.10,275.61,174.33,15.49,19.57,20.39,71.12,89.87,93.62,2025-10-09T17:23:49.811642
24.15366383,120.70382433,110.8,0.167,0.0,5.45,9,1.09,14,24.153629,120.7039005,148.7,0.167,0.0,6.949999999999999,8,1.39,14,24.15376117,120.703889,120.7,0.111,0.0,6.949999999999999,9,1.39,0,24.15367089946289,120.70385880825096,24.153668566063327,120.7038658427719,154.72,277.02,171.52,18.11,20.84,20.87,83.18,95.67,95.85,2025-10-09T17:23:50.014399
24.1536645,120.70382483,110.8,0.426,0.0,5.45,9,1.09,14,24.15362883,120.70390067,148.7,0.333,0.0,5.4,9,1.08,14,24.15376117,120.7038885,120.8,0.222,0.0,6.949999999999999,9,1.39,0,24.153663275294036,120.70386681525724,24.153667780385344,120.70386602549107,160.35,293.90,171.52,17.40,20.80,21.11,79.89,95.51,96.92,2025-10-09T17:23:50.217058
24.15366467,120.703825,110.5,0.204,0.0,5.45,9,1.09,14,24.15362867,120.703901,148.7,0.352,0.0,5.4,9,1.08,14,24.153761,120.70388767,121.0,0.111,0.0,6.949999999999999,9,1.39,0,24.15366325339552,120.70386690789647,24.15366708621592,120.70386619864755,150.50,269.99,170.11,20.22,17.77,18.93,92.85,81.58,86.92,2025-10-09T17:23:50.419949
24.15366483,120.70382533,110.5,0.185,0.0,5.45,9,1.09,14,24.15362867,120.703901,148.7,0.352,0.0,5.4,9,1.08,14,24.15376083,120.70388733,121.1,0.278,0.0,6.949999999999999,9,1.39,0,24.153663296194257,120.70386699772317,24.15366647733135,120.70386636329104,151.91,277.02,171.52,19.13,21.16,20.84,87.84,97.18,95.71,2025-10-09T17:23:50.621933
24.153665,120.703826,110.4,0.333,0.0,5.45,9,1.09,14,24.15362883,120.70390067,148.8,0.333,0.0,5.4,9,1.08,14,24.15376083,120.70388733,121.2,0.278,0.0,6.949999999999999,9,1.39,0,24.153663437017514,120.70386713892024,24.153665952330318,120.70386652831269,187.06,271.40,172.92,16.27,21.54,18.65,74.70,98.90,85.64,2025-10-09T17:23:50.824553
24.15366517,120.703826,110.4,0.463,0.0,5.45,9,1.09,14,24.1536285,120.7039005,148.9,0.204,0.0,5.4,9,1.08,14,24.15376033,120.70388617,121.4,0.148,0.0,6.949999999999999,9,1.39,0,24.153663293609828,120.70386689599266,24.15366546514201,120.70386664376912,173.00,251.71,174.33,17.02,19.22,19.16,78.13,88.27,87.99,2025-10-09T17:23:51.026336
24.1536655,120.70382667,110.4,0.074,0.0,5.45,9,1.09,14,24.1536285,120.70390067,148.9,0.315,0.0,5.4,9,1.08,14,24.15376033,120.70388617,121.5,0.148,0.0,6.949999999999999,9,1.39,0,24.153663433174184,120.70386725258498,24.153665045508145,120.7038667913841,173.00,329.05,170.11,17.09,17.50,21.99,78.48,80.38,100.98,2025-10-09T17:23:51.228544
24.1536655,120.70382667,110.3,0.074,0.0,5.45,9,1.09,14,24.1536285,120.70390067,148.9,0.315,0.0,5.4,9,1.08,14,24.15376017,120.703886,121.6,0.241,0.0,6.949999999999999,9,1.39,0,24.153663409768225,120.70386722771613,24.153664666085398,120.70386692040424,156.13,269.99,170.11,21.78,18.17,19.67,100.00,83.44,90.33,2025-10-09T17:23:51.430641
24.15366567,120.70382733,110.3,0.259,0.0,5.45,9,1.09,14,24.153628,120.7039005,148.9,0.444,0.0,5.4,9,1.08,14,24.15376017,120.70388567,121.6,0.204,0.0,6.949999999999999,9,1.39,0,24.15366326626979,120.70386738533568,24.153664308569688,120.70386705468148,180.03,309.36,167.30,17.61,19.62,18.56,80.84,90.10,85.21,2025-10-09T17:23:51.632960
24.153666,120.70382867,110.2,0.611,0.0,5.45,9,1.09,14,24.153628,120.7039005,148.9,0.278,0.0,5.4,9,1.08,14,24.15375983,120.7038855,121.7,0.241,0.0,6.949999999999999,9,1.39,0,24.15366335609648,120.70386792718271,24.153663999167318,120.70386724019973,147.69,269.99,171.52,19.48,18.29,20.54,89.44,84.00,94.34,2025-10-09T17:23:51.835322
24.153666,120.70382867,109.8,0.611,0.0,5.45,9,1.09,14,24.153628,120.70390017,148.9,0.111,0.0,5.4,9,1.08,14,24.15375967,120.70388533,121.7,0.111,0.0,6.949999999999999,9,1.39,0,24.15366333269052,120.70386776015303,24.153663718970986,120.70386738823196,156.13,300.93,165.89,18.56,19.14,17.10,85.22,87.89,78.50,2025-10-09T17:23:52.038469
24.153666,120.7038285,109.9,0.037,0.0,5.45,9,1.09,14,24.15362783,120.7039,148.9,0.352,0.0,5.4,9,1.08,14,24.15375933,120.70388533,121.7,0.167,0.0,6.949999999999999,9,1.39,0,24.153663209718477,120.70386761502185,24.153663453444175,120.70386750455484,147.69,303.74,164.49,18.55,18.73,19.43,85.20,86.02,89.22,2025-10-09T17:23:52.240512
24.15366683,120.70382967,109.8,0.093,0.0,5.45,9,1.09,14,24.15362767,120.7038995,149.0,0.204,0.0,5.4,9,1.08,14,24.15375917,120.70388467,121.8,0.204,0.0,6.949999999999999,9,1.39,0,24.153663468411548,120.70386779789615,24.15366324685818,120.7038676302514,129.41,272.80,167.30,19.58,17.45,20.17,89.89,80.13,92.60,2025-10-09T17:23:52.442903
24.15366683,120.70382967,109.8,0.093,0.0,5.45,9,1.09,14,24.1536275,120.70389917,149.1,0.482,0.0,5.4,9,1.08,14,24.15375917,120.70388467,121.9,0.204,0.0,6.949999999999999,9,1.39,0,24.15366339517717,120.70386765573528,24.15366305620375,120.70386772625288,153.31,293.90,163.08,22.18,20.10,20.77,101.83,92.30,95.36,2025-10-09T17:23:52.645058
24.15366717,120.70382983,109.7,0.333,0.0,5.45,9,1.09,14,24.1536275,120.70389917,149.2,0.482,0.0,5.4,9,1.08,14,24.153759,120.703885,121.9,0.315,0.0,6.949999999999999,9,1.39,0,24.15366351410192,120.70386777167765,24.153662901775288,120.7038678251915,146.28,293.90,164.49,20.87,16.77,17.43,95.83,77.00,80.05,2025-10-09T17:23:52.847737
24.15366783,120.70383167,109.4,0.315,0.0,5.45,9,1.09,14,24.1536275,120.70389833,149.3,0.037,0.0,5.4,9,1.08,14,24.15375883,120.70388467,121.9,0.019,0.0,6.949999999999999,9,1.39,0,24.1536637683618,120.7038681397159,24.153662796829234,120.70386795589387,146.28,288.27,164.49,19.24,22.26,20.66,88.33,102.21,94.88,2025-10-09T17:23:53.049895
24.153669,120.7038335,109.4,0.315,0.0,5.45,9,1.09,14,24.1536275,120.70389783,149.3,0.259,0.0,5.4,9,1.08,14,24.1537585,120.703885,121.8,0.278,0.0,6.949999999999999,9,1.39,0,24.15366421490609,120.70386874654326,24.153662759208885,120.70386814397398,133.63,271.40,164.49,18.75,17.33,19.89,86.11,79.59,91.31,2025-10-09T17:23:53.253084
24.15366917,120.70383417,109.2,0.278,0.0,5.45,9,1.09,14,24.1536275,120.7038975,149.3,0.204,0.0,5.4,9,1.08,14,24.1537585,120.703885,121.8,0.278,0.0,6.949999999999999,9,1.39,0,24.15366428680288,120.70386888774037,24.1536627423592,120.70386833111084,142.06,288.27,164.49,20.52,21.89,18.80,94.23,100.51,86.34,2025-10-09T17:23:53.456264
24.15366917,120.70383417,109.2,0.278,0.0,4.85,10,0.97,14,24.15362767,120.70389767,149.3,0.13,0.0,5.4,9,1.08,14,24.15375883,120.70388483,121.8,0.352,0.0,6.949999999999999,9,1.39,0,24.153665009468853,120.70386454693109,24.153662813119272,120.70386799879148,142.06,282.65,164.49,19.02,19.27,21.97,87.32,88.49,100.87,2025-10-09T17:23:53.658579
24.15366917,120.70383417,109.2,0.037,0.0,4.85,10,0.97,14,24.15362817,120.703898,149.2,0.111,0.0,5.4,9,1.08,14,24.15375883,120.70388467,121.8,0.185,0.0,6.949999999999999,9,1.39,0,24.153665197670716,120.70386465069333,24.15366291004456,120.70386769708556,136.44,277.02,163.08,19.66,18.30,21.15,90.30,84.04,97.13,2025-10-09T17:23:53.861091
24.15366933,120.70383433,109.2,0.13,0.0,4.85,10,0.97,14,24.1536285,120.70389783,149.0,0.204,0.0,6.949999999999999,9,1.39,14,24.15375867,120.70388433,121.8,0.278,0.0,6.949999999999999,9,1.39,0,24.153671846825127,120.70385880052417,24.153663665125773,120.70386683094712,150.50,300.93,160.27,20.68,22.35,18.11,94.95,102.62,83.18,2025-10-09T17:23:54.063862
24.15366933,120.703835,109.4,0.148,0.0,4.85,10,0.97,14,24.153629,120.703898,149.0,0.074,0.0,6.949999999999999,9,1.39,14,24.15375867,120.70388433,121.9,0.278,0.0,6.949999999999999,9,1.39,0,24.153671980361406,120.7038592363349,24.15366440704498,120.7038660519766,139.25,291.08,157.46,18.25,22.77,19.56,83.81,104.57,89.80,2025-10-09T17:23:54.267250
24.15366933,120.703835,109.3,0.148,0.0,4.85,10,0.97,14,24.153629,120.703898,148.5,0.074,0.0,5.4,8,1.08,14,24.15375867,120.70388383,122.1,0.37,0.0,6.949999999999999,9,1.39,0,24.153666449978687,120.70386415869648,24.153664570052356,120.70386581108745,191.28,260.15,149.02,16.71,17.21,19.73,76.74,79.05,90.59,2025-10-09T17:23:54.469449
24.1536695,120.70383533,109.3,0.111,0.0,5.45,10,1.09,14,24.15362917,120.7038985,148.5,0.148,0.0,5.4,8,1.08,14,24.1537585,120.7038835,122.1,0.13,0.0,6.949999999999999,9,1.39,0,24.15366623004042,120.7038679048943,24.153664703909477,120.70386601234948,187.06,253.11,153.24,21.03,19.24,19.32,96.55,88.34,88.69,2025-10-09T17:23:54.672997
24.15366983,120.70383633,109.1,0.37,0.0,5.45,10,1.09,14,24.153629,120.70389833,148.3,0.13,0.0,5.4,8,1.08,14,24.15375833,120.70388317,122.2,0.407,0.0,6.949999999999999,9,1.39,0,24.15366628482843,120.70386823748076,24.15366483897432,120.70386624056862,168.78,236.24,154.64,16.47,19.27,18.33,75.62,88.48,84.18,2025-10-09T17:23:54.875418
24.15367,120.70383633,109.2,0.056,0.0,5.45,10,1.09,14,24.153629,120.70389883,148.2,0.407,0.0,5.4,8,1.08,14,24.153758,120.70388283,122.3,0.333,0.0,6.949999999999999,9,1.39,0,24.15366631295781,120.703868389751,24.15366497162978,120.703866473217,189.88,243.27,150.42,17.14,20.83,20.99,78.70,95.64,96.38,2025-10-09T17:23:55.077489
24.15367083,120.70383817,109.0,0.37,0.0,5.45,10,1.09,14,24.15362883,120.70389867,148.2,0.259,0.0,5.4,8,1.08,14,24.15375767,120.70388283,122.4,0.574,0.0,6.949999999999999,9,1.39,0,24.15366656911635,120.7038691523205,24.153665127290644,120.70386677783576,178.63,237.65,150.42,21.91,20.82,19.68,100.60,95.60,90.38,2025-10-09T17:23:55.280038
24.15367083,120.70383817,108.9,0.37,0.0,5.45,10,1.09,14,24.15362867,120.703899,148.0,0.352,0.0,5.4,8,1.08,14,24.15375767,120.7038825,122.5,0.148,0.0,6.949999999999999,9,1.39,0,24.153666504465992,120.70386923736332,24.153665267895125,120.70386707290203,188.47,237.65,149.02,19.53,20.13,20.67,89.68,92.42,94.90,2025-10-09T17:23:55.482279
24.15367133,120.703839,108.8,0.241,0.0,5.45,10,1.09,14,24.15362867,120.70389917,147.9,0.093,0.0,5.4,8,1.08,14,24.15375733,120.70388267,122.5,0.296,0.0,6.949999999999999,9,1.39,0,24.153666679491863,120.70386970408347,24.15366542056301,120.70386740136732,184.25,229.21,147.61,17.41,20.07,19.24,79.95,92.16,88.35,2025-10-09T17:23:55.685525
24.15367183,120.70383983,108.5,0.426,0.0,5.45,10,1.09,14,24.15362883,120.7038995,147.7,0.315,0.0,5.4,8,1.08,14,24.153757,120.70388283,122.4,0.241,0.0,6.949999999999999,9,1.39,0,24.153666920631686,120.70387023399044,24.15366559147619,120.70386776789934,185.66,240.46,146.21,18.41,17.97,20.16,84.51,82.51,92.56,2025-10-09T17:23:55.888537
24.15367233,120.70384,108.4,0.315,0.0,5.45,10,1.09,14,24.153629,120.70390033,147.7,0.389,0.0,5.4,8,1.08,14,24.15375667,120.70388267,122.5,0.352,0.0,6.949999999999999,9,1.39,0,24.15366716581216,120.70387062237461,24.153665778995034,120.70386815283673,181.44,226.40,146.21,18.39,18.67,20.85,84.46,85.74,95.72,2025-10-09T17:23:56.090764
24.15367333,120.703841,108.3,0.222,0.0,5.45,10,1.09,14,24.153629,120.70390067,147.5,0.37,0.0,5.4,8,1.08,14,24.15375667,120.70388267,122.6,0.352,0.0,6.949999999999999,9,1.39,0,24.15366761538818,120.70387120933266,24.153666004147425,120.70386857718165,192.69,239.05,143.39,19.29,19.05,18.03,88.57,87.48,82.81,2025-10-09T17:23:56.292344
24.15367333,120.703841,108.1,0.222,0.0,5.45,10,1.09,14,24.15362917,120.70390133,147.4,0.648,0.0,5.4,8,1.08,14,24.15375683,120.70388233,122.7,0.204,0.0,6.949999999999999,9,1.39,0,24.153667707496666,120.70387142625324,24.153666224839778,120.70386899538467,189.88,224.99,143.39,17.27,20.08,19.64,79.29,92.19,90.17,2025-10-09T17:23:56.495282
24.15367367,120.70384217,107.9,0.37,0.0,5.45,9,1.09,14,24.15362917,120.7039015,147.3,0.315,0.0,5.4,8,1.08,14,24.15375683,120.70388167,122.8,0.407,0.0,6.949999999999999,9,1.39,0,24.153667702539135,120.70387273259885,24.153666432781,120.70386952695468,199.72,236.24,140.58,14.58,20.25,19.05,66.94,92.98,87.48,2025-10-09T17:23:56.697832
24.15367483,120.70384417,107.9,0.407,0.0,5.45,9,1.09,14,24.15362917,120.7039015,147.2,0.315,0.0,5.4,8,1.08,14,24.15375617,120.703882,122.8,0.204,0.0,6.949999999999999,9,1.39,0,24.15366810748226,120.70387365145797,24.153666671293784,120.70387012294637,180.03,216.55,143.39,18.99,16.55,16.49,87.22,76.00,75.74,2025-10-09T17:23:56.900294
24.15367683,120.70384717,107.2,0.056,0.0,5.45,9,1.09,14,24.1536295,120.70390233,147.2,0.611,0.0,5.4,8,1.08,14,24.153756,120.70388183,122.9,0.482,0.0,6.949999999999999,9,1.39,0,24.153669088137363,120.70387527425775,24.15366700119176,120.70387085717843,188.47,226.40,140.58,17.71,19.73,19.39,81.31,90.58,89.05,2025-10-09T17:23:57.102643
24.15367783,120.703849,106.9,0.352,0.0,5.45,9,1.09,14,24.1536295,120.70390233,146.9,0.611,0.0,5.4,8,1.08,14,24.15375567,120.7038835,122.8,0.056,0.0,6.949999999999999,9,1.39,0,24.15366947315113,120.70387632067956,24.153667351541564,120.70387165522651,177.22,206.71,139.17,17.10,20.26,21.33,78.50,93.02,97.96,2025-10-09T17:23:57.305022
24.1536795,120.70385067,106.9,0.259,0.0,5.45,9,1.09,14,24.1536295,120.70390267,146.9,0.426,0.0,5.4,8,1.08,14,24.15375583,120.70388417,122.6,0.611,0.0,6.949999999999999,9,1.39,0,24.153670223027287,120.7038772883404,24.153667759064206,120.70387250361397,188.47,239.05,134.96,19.83,20.26,21.30,91.06,93.01,97.82,2025-10-09T17:23:57.507533
24.1536795,120.70385067,106.7,0.259,0.0,5.45,9,1.09,14,24.1536295,120.70390317,146.8,0.37,0.0,5.4,8,1.08,14,24.15375583,120.70388417,122.4,0.611,0.0,6.949999999999999,9,1.39,0,24.153670223027287,120.70387749586077,24.15366813753848,120.70387331145751,187.06,226.40,132.14,18.60,22.04,22.88,85.39,101.21,105.06,2025-10-09T17:23:57.710045
24.15368017,120.70385117,106.6,0.278,0.0,5.45,9,1.09,14,24.15362933,120.70390367,146.7,0.241,0.0,5.4,8,1.08,14,24.15375533,120.703885,122.1,0.296,0.0,6.949999999999999,9,1.39,0,24.153670368501167,120.70387804547128,24.15366850388948,120.70387411701329,195.50,233.43,130.74,20.53,18.71,18.04,94.25,85.90,82.86,2025-10-09T17:23:57.912213
24.15368017,120.70385117,106.7,0.037,0.0,5.45,9,1.09,14,24.15362933,120.7039045,146.7,0.5,0.0,5.4,8,1.08,14,24.153755,120.70388633,121.8,0.185,0.0,6.949999999999999,9,1.39,0,24.153670318890637,120.7038785899006,24.153668837592754,120.70387491876123,168.78,206.71,134.96,20.22,18.77,20.25,92.83,86.18,92.97,2025-10-09T17:23:58.114702
24.15368067,120.70385133,106.6,0.296,0.0,5.45,9,1.09,14,24.15362933,120.70390483,146.6,0.352,0.0,5.4,8,1.08,14,24.153754,120.7038885,121.7,0.296,0.0,6.949999999999999,9,1.39,0,24.153670385867844,120.70387912263075,24.153669152061976,120.7038757140849,178.63,215.15,133.55,16.10,23.02,19.84,73.95,105.72,91.09,2025-10-09T17:23:58.317201
24.1536815,120.7038525,106.5,0.056,0.0,5.45,9,1.09,14,24.15362933,120.70390583,146.4,0.389,0.0,5.4,8,1.08,14,24.15375367,120.70388933,121.4,0.315,0.0,6.949999999999999,9,1.39,0,24.15367069699548,120.70388017095995,24.153669474902486,120.70387655899344,180.03,219.36,132.14,18.45,21.61,17.27,84.72,99.21,79.31,2025-10-09T17:23:58.519457
24.15368183,120.7038525,106.6,0.111,0.0,5.45,9,1.09,14,24.15362917,120.7039065,146.3,0.407,0.0,5.4,8,1.08,14,24.1537535,120.70388983,121.2,0.222,0.0,6.949999999999999,9,1.39,0,24.153670748458037,120.70388052420473,24.15366994191545,120.70387777929946,173.00,224.99,127.92,17.07,20.41,20.80,78.38,93.70,95.52,2025-10-09T17:23:58.921957
24.153682,120.7038525,106.8,0.259,0.0,5.45,9,1.09,14,24.1536295,120.703908,146.3,0.426,0.0,5.4,8,1.08,14,24.15375317,120.70389083,121.1,0.444,0.0,6.949999999999999,9,1.39,0,24.15367090969709,120.70388129710082,24.15367022469792,120.70387859555696,189.88,230.61,125.11,20.08,20.25,20.15,92.21,92.98,92.53,2025-10-09T17:23:59.124795
24.1536825,120.70385283,106.7,0.056,0.0,5.45,9,1.09,14,24.1536295,120.703908,146.1,0.426,0.0,5.4,8,1.08,14,24.15375267,120.70389133,121.1,0.333,0.0,6.949999999999999,9,1.39,0,24.153671051841766,120.70388151569432,24.15367049484773,120.70387935792144,182.85,216.55,125.11,18.91,17.59,16.12,86.83,80.75,74.02,2025-10-09T17:23:59.327799
24.15368233,120.7038535,106.8,0.315,0.0,5.45,9,1.09,14,24.15362983,120.7039085,146.1,0.13,0.0,5.4,8,1.08,14,24.1537525,120.70389083,121.1,0.074,0.0,6.8999999999999995,9,1.38,0,24.15367126699123,120.70388195864416,24.15367076048255,120.70388009288465,184.25,220.77,125.11,16.10,21.79,19.70,73.91,100.03,90.45,2025-10-09T17:23:59.529742
24.1536825,120.703854,106.8,0.389,0.0,5.45,9,1.09,14,24.15362983,120.7039085,146.0,0.13,0.0,5.4,8,1.08,14,24.1537525,120.70389083,121.2,0.074,0.0,6.8999999999999995,9,1.38,0,24.153671340716144,120.70388217548215,24.153671006310912,120.70388077779259,180.03,220.77,126.52,16.71,18.50,20.22,76.71,84.97,92.84,2025-10-09T17:23:59.731866
24.15368267,120.70385433,106.8,0.333,0.0,5.45,9,1.09,14,24.15363,120.70390883,146.0,0.407,0.0,5.4,8,1.08,14,24.1537525,120.70389033,121.2,0.111,0.0,6.8999999999999995,9,1.38,0,24.15367148484405,120.70388237916544,24.153671241999202,120.70388141552529,194.10,227.80,125.11,19.32,22.55,20.84,88.71,103.56,95.69,2025-10-09T17:23:59.934380
24.15368267,120.70385433,106.7,0.333,0.0,5.45,9,1.09,14,24.15363017,120.70390883,146.0,0.259,0.0,5.4,8,1.08,14,24.15375267,120.70389033,121.2,0.222,0.0,6.8999999999999995,9,1.38,0,24.153671581119127,120.70388237916544,24.15367146200937,120.7038819845787,194.10,226.40,123.71,19.12,17.91,19.92,87.80,82.26,91.48,2025-10-09T17:24:00.136943
24.15368267,120.70385433,106.8,0.259,0.0,5.45,9,1.09,14,24.1536305,120.703909,146.0,0.315,0.0,5.4,8,1.08,14,24.1537525,120.70388983,121.3,0.111,0.0,6.8999999999999995,9,1.38,0,24.153671691911644,120.70388237347403,24.153671669431223,120.70388248996903,195.50,230.61,123.71,17.82,19.83,17.34,81.81,91.08,79.63,2025-10-09T17:24:00.339746
24.15368267,120.70385433,106.8,0.204,0.0,5.45,10,1.09,14,24.1536305,120.70390933,145.9,0.204,0.0,5.4,8,1.08,14,24.1537525,120.70389017,121.3,0.019,0.0,6.8999999999999995,9,1.38,0,24.153671981617574,120.70388181685844,24.153671883021943,120.70388287100928,191.28,223.58,123.71,18.28,19.57,19.43,83.93,89.86,89.24,2025-10-09T17:24:00.542095
24.15368283,120.70385383,106.8,0.315,0.0,5.45,10,1.09,14,24.1536305,120.7039095,145.9,0.407,0.0,5.4,8,1.08,14,24.1537525,120.70389017,121.2,0.13,0.0,6.8999999999999995,9,1.38,0,24.15367205339693,120.70388166109302,24.153672080132637,120.70388318415449,189.88,223.58,122.30,16.25,18.08,20.45,74.63,83.00,93.88,2025-10-09T17:24:00.744836
24.1536825,120.703854,106.9,0.352,0.0,5.45,10,1.09,14,24.15363083,120.70390967,145.9,0.185,0.0,5.4,8,1.08,14,24.1537525,120.70389017,121.2,0.13,0.0,6.8999999999999995,9,1.38,0,24.153672038410118,120.70388180590369,24.153672252638135,120.70388346757659,195.50,232.02,120.89,16.59,20.05,20.54,76.16,92.07,94.32,2025-10-09T17:24:00.947352
24.15368283,120.703854,106.9,0.13,0.0,5.45,10,1.09,14,24.15363067,120.70390933,146.0,0.278,0.0,5.4,8,1.08,14,24.153752,120.70388933,121.0,0.296,0.0,6.8999999999999995,9,1.38,0,24.153672047855704,120.70388154434849,24.15367240380601,120.70388367712656,182.85,220.77,123.71,17.85,19.79,21.38,81.95,90.89,98.19,2025-10-09T17:24:01.149221
24.15368283,120.70385383,106.9,0.056,0.0,5.45,10,1.09,14,24.15363083,120.70391,146.0,0.463,0.0,5.4,8,1.08,14,24.153752,120.703889,121.2,0.333,0.0,6.8999999999999995,9,1.38,0,24.153672112368728,120.70388168933424,24.1536725426325,120.70388386562257,189.88,229.21,122.30,17.43,20.41,11.62,80.03,93.74,53.36,2025-10-09T17:24:01.352176
24.15368267,120.70385383,106.9,0.111,0.0,5.45,10,1.09,14,24.15363083,120.70391017,146.0,0.111,0.0,5.4,9,1.08,14,24.153752,120.70388883,121.3,0.037,0.0,6.8999999999999995,9,1.38,0,24.153670961828716,120.70388247708725,24.153672537845992,120.70388410460346,192.69,239.05,119.49,14.94,19.10,22.23,68.59,87.69,102.07,2025-10-09T17:24:01.555690
24.153683,120.70385367,107.0,0.333,0.0,5.45,10,1.09,14,24.153631,120.70391083,146.0,0.13,0.0,5.4,9,1.08,14,24.15375217,120.70388933,121.3,0.296,0.0,6.8999999999999995,9,1.38,0,24.15367120172912,120.70388275576066,24.15367255054605,120.70388433885414,170.19,220.77,119.49,19.46,21.58,18.78,89.36,99.08,86.25,2025-10-09T17:24:01.757903
24.15368317,120.70385383,107.0,0.167,0.0,5.45,10,1.09,14,24.15363067,120.70391133,145.8,0.333,0.0,5.4,9,1.08,14,24.153752,120.7038895,121.2,0.093,0.0,6.8999999999999995,9,1.38,0,24.153671113254923,120.70388305960529,24.15367254327603,120.70388456876415,175.81,234.83,113.86,14.91,22.99,16.66,68.46,105.57,76.51,2025-10-09T17:24:01.960004
24.15368283,120.70385317,107.0,0.185,0.0,5.45,10,1.09,14,24.15363067,120.70391133,145.8,0.333,0.0,5.4,9,1.08,14,24.15375167,120.70389033,121.2,0.185,0.0,6.8999999999999995,9,1.38,0,24.153670917099557,120.70388289103008,24.15367250561174,120.70388474349652,161.75,236.24,112.46,20.74,21.05,20.01,95.25,96.67,91.88,2025-10-09T17:24:02.162523
24.15368283,120.70385317,107.2,0.296,0.0,5.45,10,1.09,14,24.15363117,120.70391233,145.6,0.222,0.0,5.4,9,1.08,14,24.1537515,120.70389067,121.1,0.204,0.0,6.8999999999999995,9,1.38,0,24.153671101983846,120.70388335891856,24.153672483034082,120.70388493979395,163.16,237.65,108.24,18.39,20.77,21.42,84.46,95.37,98.36,2025-10-09T17:24:02.365103
24.1536825,120.70385267,107.3,0.296,0.0,4.85,10,0.97,14,24.15363083,120.7039125,145.7,0.333,0.0,5.4,9,1.08,14,24.15375183,120.70389083,121.0,0.37,0.0,6.8999999999999995,9,1.38,0,24.15367206119179,120.70388008776735,24.1536725480877,120.70388472019862,150.50,227.80,109.64,18.19,17.00,21.29,83.55,78.06,97.78,2025-10-09T17:24:02.567350
24.1536825,120.70385217,107.4,0.685,0.0,4.85,10,0.97,14,24.15363117,120.70391317,145.7,0.204,0.0,5.4,9,1.08,14,24.15375133,120.7038915,121.0,0.426,0.0,6.8999999999999995,9,1.38,0,24.153672124212967,120.70388017878399,24.153672609613206,120.70388450792461,158.94,229.21,106.83,18.37,18.63,18.78,84.37,85.57,86.22,2025-10-09T17:24:02.769528
24.15368217,120.70385233,107.6,0.37,0.0,4.85,10,0.97,14,24.153631,120.70391367,145.4,0.204,0.0,5.4,9,1.08,14,24.15375167,120.70389167,121.0,0.296,0.0,6.8999999999999995,9,1.38,0,24.15367194104873,120.70388046781815,24.153672641228923,120.7038843258481,161.75,227.80,106.83,16.76,18.83,17.96,76.97,86.46,82.47,2025-10-09T17:24:02.971801
24.153682,120.703852,107.7,0.185,0.0,4.85,10,0.97,14,24.15363133,120.70391417,145.2,0.204,0.0,5.4,9,1.08,14,24.15375167,120.703892,120.9,0.222,0.0,6.8999999999999995,9,1.38,0,24.153671980905667,120.70388053508204,24.153672669454604,120.70388414867017,147.69,219.36,104.02,17.35,20.15,17.26,79.66,92.51,79.26,2025-10-09T17:24:03.174321
24.15368183,120.70385217,107.8,0.389,0.0,4.85,10,0.97,14,24.1536315,120.7039145,145.2,0.074,0.0,5.4,9,1.08,14,24.1537515,120.70389267,121.0,0.352,0.0,6.8999999999999995,9,1.38,0,24.153671938645445,120.70388082991347,24.15367268608964,120.70388400240775,150.50,236.24,99.80,13.38,19.55,16.28,61.43,89.75,74.74,2025-10-09T17:24:03.377042
24.153682,120.70385217,107.8,0.222,0.0,4.85,10,0.97,14,24.15363167,120.703915,145.2,0.13,0.0,5.4,9,1.08,14,24.1537515,120.70389283,120.9,0.315,0.0,6.8999999999999995,9,1.38,0,24.15367208664112,120.70388103847603,24.15367271258871,120.70388387632262,139.25,226.40,99.80,16.71,18.54,20.53,76.74,85.14,94.27,2025-10-09T17:24:03.579274
24.15368167,120.70385217,107.7,0.352,0.0,5.45,10,1.09,14,24.15363183,120.7039155,144.8,0.167,0.0,5.4,9,1.08,14,24.15375133,120.70389317,120.9,0.241,0.0,6.8999999999999995,9,1.38,0,24.15367084710277,120.70388461046231,24.153672610965383,120.7038841447836,150.50,232.02,96.99,16.47,20.43,20.48,75.61,93.80,94.03,2025-10-09T17:24:03.781363
24.1536815,120.70385217,107.7,0.204,0.0,5.45,10,1.09,14,24.15363217,120.70391617,144.8,0.148,0.0,5.4,9,1.08,14,24.15375067,120.703894,120.9,0.13,0.0,6.8999999999999995,9,1.38,0,24.153670820001285,120.70388501084142,24.1536725690427,120.7038846285342,161.75,240.46,96.99,17.39,19.20,18.42,79.86,88.15,84.58,2025-10-09T17:24:04.184311
24.15368133,120.703852,107.7,0.241,0.0,5.45,10,1.09,14,24.1536325,120.70391633,144.6,0.185,0.0,5.4,9,1.08,14,24.15375017,120.703895,120.8,0.556,0.0,6.8999999999999995,9,1.38,0,24.153670811798545,120.70388514787874,24.153672437917997,120.70388488064393,189.88,229.21,116.67,15.65,16.64,20.78,71.84,76.39,95.41,2025-10-09T17:24:04.386566
24.15368117,120.70385233,107.7,0.407,0.0,5.45,10,1.09,14,24.1536325,120.70391683,144.4,0.093,0.0,5.4,9,1.08,14,24.15375017,120.70389517,120.8,0.093,0.0,6.8999999999999995,9,1.38,0,24.15367074189814,120.70388552599258,24.153672305317098,120.70388514932013,209.56,223.58,146.21,15.27,18.76,18.36,70.12,86.15,84.30,2025-10-09T17:24:04.589471
24.153681,120.703852,107.8,0.148,0.0,5.45,10,1.09,14,24.15363283,120.703917,144.1,0.037,0.0,5.4,9,1.08,14,24.15375017,120.70389567,120.8,0.148,0.0,6.8999999999999995,9,1.38,0,24.153670805842374,120.70388552517082,24.153672185806663,120.70388538882865,247.53,223.58,192.61,15.58,20.27,17.81,71.56,93.09,81.79,2025-10-09T17:24:04.791933
24.15368117,120.70385217,107.8,0.204,0.0,5.45,10,1.09,14,24.15363333,120.70391733,144.1,0.148,0.0,5.4,9,1.08,14,24.15374967,120.70389567,120.7,0.056,0.0,6.8999999999999995,9,1.38,0,24.15367101737884,120.7038857376534,24.15367209594754,120.70388562645493,265.81,209.52,231.99,18.28,19.66,18.71,83.93,90.25,85.90,2025-10-09T17:24:04.994626
24.1536805,120.70385183,107.7,0.333,0.0,5.45,10,1.09,14,24.15363383,120.70391817,143.9,0.296,0.0,5.4,9,1.08,14,24.153749,120.70389567,120.8,0.111,0.0,6.8999999999999995,9,1.38,0,24.153670837408214,120.70388594093102,24.153671989431476,120.7038858594161,296.75,219.36,265.74,22.91,19.35,22.55,105.19,88.87,103.57,2025-10-09T17:24:05.196613
24.15368033,120.7038515,108.0,0.074,0.0,5.45,10,1.09,14,24.15363417,120.7039185,143.6,0.148,0.0,5.4,9,1.08,14,24.15374867,120.7038955,120.8,0.204,0.0,6.8999999999999995,8,1.38,0,24.153669590061895,120.70388575419362,24.153671746616084,120.70388604072166,306.60,203.90,310.74,17.43,17.39,19.65,80.01,79.85,90.22,2025-10-09T17:24:05.399224
24.15368017,120.70385167,108.0,0.315,0.0,5.45,10,1.09,14,24.1536345,120.70391933,143.4,0.111,0.0,5.4,9,1.08,14,24.1537485,120.703895,120.9,0.019,0.0,6.8999999999999995,8,1.38,0,24.153669637328292,120.70388611778924,24.15367152394259,120.7038862416398,313.63,196.86,2.77,14.22,17.19,21.03,65.28,78.92,96.57,2025-10-09T17:24:05.602885
24.15368033,120.7038515,108.0,0.352,0.0,5.45,10,1.09,14,24.1536345,120.70392,143.3,0.185,0.0,5.4,9,1.08,14,24.15374817,120.70389483,120.9,0.167,0.0,6.8999999999999995,8,1.38,0,24.15366966535176,120.70388630533766,24.15367131790965,120.70388644097547,310.81,194.05,50.58,20.35,16.98,20.15,93.43,77.95,92.54,2025-10-09T17:24:05.805129
24.1536805,120.70385167,108.0,0.296,0.0,5.45,10,1.09,14,24.15363433,120.7039205,143.1,0.148,0.0,5.4,9,1.08,14,24.153748,120.7038945,121.0,0.148,0.0,6.8999999999999995,8,1.38,0,24.153669646310387,120.70388655062752,24.153671122844536,120.7038866445029,303.78,210.93,80.11,21.84,21.37,20.87,100.28,98.14,95.82,2025-10-09T17:24:06.007922
24.1536805,120.70385167,107.9,0.167,0.0,5.45,10,1.09,14,24.15363433,120.70392117,143.1,0.13,0.0,5.4,9,1.08,14,24.153748,120.7038945,121.0,0.037,0.0,6.8999999999999995,8,1.38,0,24.153669646310387,120.70388683581496,24.15367094084194,120.70388685624798,299.56,210.93,105.42,17.25,17.75,22.65,79.23,81.52,104.02,2025-10-09T17:24:06.211310
24.15368033,120.70385167,107.9,0.056,0.0,5.45,10,1.09,14,24.15363433,120.70392167,143.0,0.111,0.0,5.4,9,1.08,14,24.15374767,120.70389417,121.0,0.056,0.0,6.8999999999999995,8,1.38,0,24.153669527815193,120.70388700562549,24.153670757980056,120.70388706307705,275.66,222.18,113.86,16.36,18.56,21.36,75.11,85.21,98.08,2025-10-09T17:24:06.412985
24.1536805,120.70385183,107.9,0.167,0.0,5.45,10,1.09,14,24.1536345,120.70392183,142.9,0.296,0.0,5.4,9,1.08,14,24.15374733,120.70389433,121.1,0.167,0.0,6.8999999999999995,8,1.38,0,24.1536696313361,120.70388716562553,24.15367059929012,120.70388726443892,250.35,226.40,119.49,17.85,17.68,20.33,81.96,81.19,93.37,2025-10-09T17:24:06.615462
24.15368017,120.70385167,107.8,0.259,0.0,5.45,10,1.09,14,24.15363417,120.70392267,142.8,0.167,0.0,6.8999999999999995,9,1.38,14,24.15374717,120.70389483,121.1,0.222,0.0,6.8999999999999995,8,1.38,0,24.153676267501687,120.70388057346345,24.153671123970057,120.70388676624262,233.47,230.61,123.71,16.30,19.14,18.60,74.86,87.90,85.39,2025-10-09T17:24:06.818176
24.15368017,120.70385217,107.8,0.389,0.0,5.45,10,1.09,14,24.15363433,120.70392333,142.6,0.037,0.0,6.8999999999999995,9,1.38,14,24.15374667,120.70389517,121.0,0.204,0.0,6.8999999999999995,8,1.38,0,24.1536762394037,120.70388109843944,24.153671625504536,120.70388633466943,216.60,237.65,125.11,15.41,17.01,21.54,70.77,78.11,98.89,2025-10-09T17:24:07.021364
24.15368017,120.70385233,107.7,0.167,0.0,5.45,10,1.09,14,24.15363433,120.703924,142.5,0.222,0.0,6.8999999999999995,9,1.38,14,24.15374617,120.7038955,121.0,0.296,0.0,6.8999999999999995,8,1.38,0,24.153676161353737,120.70388144419836,24.1536720967469,120.70388595000465,196.91,234.83,127.92,16.27,18.48,18.67,74.72,84.85,85.71,2025-10-09T17:24:07.223740
24.15368017,120.70385217,107.7,0.204,0.0,5.45,10,1.09,14,24.15363433,120.70392483,142.5,0.111,0.0,6.8999999999999995,9,1.38,14,24.15374583,120.70389567,121.0,0.185,0.0,6.8999999999999995,8,1.38,0,24.153676108279754,120.70388164478922,24.15367253913059,120.7038855976957,184.25,239.05,127.92,17.83,19.03,15.13,81.89,87.39,69.46,2025-10-09T17:24:07.425901
24.1536805,120.70385233,107.7,0.111,0.0,5.45,10,1.09,14,24.153634,120.70392567,142.4,0.111,0.0,6.8999999999999995,9,1.38,14,24.1537455,120.70389583,121.0,0.111,0.0,6.8999999999999995,8,1.38,0,24.15367612920189,120.70388201708512,24.15367296066942,120.70388529722591,174.41,232.02,127.92,19.08,19.27,17.83,87.59,88.50,81.86,2025-10-09T17:24:07.628668
24.1536805,120.70385267,107.7,0.241,0.0,5.45,10,1.09,14,24.15363383,120.7039265,142.3,0.222,0.0,6.8999999999999995,9,1.38,14,24.15374533,120.70389633,121.0,0.407,0.0,6.8999999999999995,8,1.38,0,24.153676049590924,120.70388253503904,24.15367335034749,120.70388506292956,189.88,232.02,116.67,16.53,21.02,19.96,75.90,96.54,91.67,2025-10-09T17:24:07.832078
24.15368083,120.70385317,107.6,0.333,0.0,5.45,10,1.09,14,24.15363383,120.70392733,142.2,0.296,0.0,6.8999999999999995,9,1.38,14,24.15374517,120.70389617,120.9,0.185,0.0,6.8999999999999995,8,1.38,0,24.153676200076003,120.70388303503906,24.15367373304281,120.70388489177061,181.44,234.83,67.46,20.22,18.80,19.63,92.86,86.32,90.15,2025-10-09T17:24:08.034374
24.153681,120.70385367,107.5,0.111,0.0,5.45,10,1.09,14,24.153634,120.70392767,142.1,0.13,0.0,6.8999999999999995,9,1.38,14,24.153745,120.70389633,120.9,0.222,0.0,6.8999999999999995,8,1.38,0,24.153676317002027,120.70388343201307,24.1536741034456,120.70388477001748,196.91,248.90,15.42,17.86,19.72,21.05,82.02,90.56,96.64,2025-10-09T17:24:08.237003
24.15368117,120.70385367,107.4,0.093,0.0,5.45,10,1.09,14,24.15363417,120.7039285,141.8,0.13,0.0,6.8999999999999995,9,1.38,14,24.153745,120.70389667,120.9,0.296,0.0,6.8999999999999995,9,1.38,0,24.15367777224602,120.70388399160012,24.15367460193821,120.7038847171781,195.50,234.83,9.80,21.44,22.77,19.51,98.44,104.54,89.58,2025-10-09T17:24:08.439067
24.15368133,120.70385417,107.4,0.278,0.0,5.45,10,1.09,14,24.15363433,120.70392917,141.7,0.093,0.0,6.8999999999999995,9,1.38,14,24.153745,120.7038965,120.8,0.111,0.0,6.8999999999999995,9,1.38,0,24.153677904685804,120.70388442824989,24.15367508261271,120.70388471288962,199.72,241.86,4.17,14.89,16.87,18.30,68.39,77.46,84.02,2025-10-09T17:24:08.642088
24.15368117,120.70385483,107.2,0.352,0.0,5.45,10,1.09,14,24.15363433,120.70393,141.6,0.019,0.0,6.8999999999999995,9,1.38,14,24.15374483,120.70389667,120.7,0.111,0.0,6.8999999999999995,9,1.38,0,24.153677791959232,120.70388505590493,24.15367551869123,120.70388477459537,202.53,232.02,4.17,21.07,16.67,22.31,96.77,76.55,102.44,2025-10-09T17:24:08.844598
24.15368133,120.703855,107.3,0.222,0.0,5.45,10,1.09,14,24.15363433,120.70393067,141.5,0.148,0.0,6.8999999999999995,9,1.38,14,24.153745,120.703897,120.7,0.278,0.0,6.8999999999999995,9,1.38,0,24.153677904685804,120.70388540657748,24.15367593538266,120.70388486933322,192.69,222.18,2.77,19.53,19.99,20.30,89.68,91.79,93.19,2025-10-09T17:24:09.047812
24.15368117,120.703855,107.3,0.185,0.0,5.45,10,1.09,14,24.15363433,120.7039315,141.5,0.019,0.0,6.8999999999999995,9,1.38,14,24.15374483,120.7038975,120.7,0.093,0.0,6.8999999999999995,9,1.38,0,24.153677791959232,120.70388574686963,24.153676308563103,120.70388499327018,199.72,233.43,1.36,14.20,17.61,17.32,65.18,80.86,79.52,2025-10-09T17:24:09.250560
24.15368133,120.7038555,107.3,0.315,0.0,5.45,10,1.09,14,24.15363467,120.7039325,141.3,0.167,0.0,6.8999999999999995,9,1.38,14,24.15374483,120.703898,120.6,0.148,0.0,6.8999999999999995,9,1.38,0,24.153677979519454,120.70388639998194,24.153676672035587,120.70388517929413,184.25,220.77,2.77,17.59,17.14,19.86,80.79,78.71,91.17,2025-10-09T17:24:09.453468
24.15368117,120.70385567,107.2,0.352,0.0,5.45,10,1.09,14,24.153635,120.703933,141.1,0.093,0.0,6.8999999999999995,9,1.38,14,24.15374467,120.70389817,120.5,0.074,0.0,6.8999999999999995,9,1.38,0,24.153677969569532,120.70388667103609,24.15367700455978,120.70388538157047,192.69,232.02,359.96,14.99,19.86,21.20,68.83,91.21,97.36,2025-10-09T17:24:09.655785
24.15368117,120.7038555,107.2,0.111,0.0,5.45,10,1.09,14,24.15363533,120.703933,141.0,0.426,0.0,6.8999999999999995,9,1.38,14,24.15374483,120.70389833,120.4,0.352,0.0,6.8999999999999995,9,1.38,0,24.153678098183892,120.70388660993721,24.15367732072577,120.70388556292829,188.47,224.99,359.96,17.36,18.03,16.03,79.71,82.81,73.61,2025-10-09T17:24:09.858312
24.15368133,120.703856,107.2,0.148,0.0,5.45,10,1.09,14,24.15363517,120.7039335,140.8,0.185,0.0,6.8999999999999995,9,1.38,14,24.1537445,120.703899,120.3,0.482,0.0,6.8999999999999995,8,1.38,0,24.15367677968697,120.70388690778661,24.153677470014816,120.70388575917455,177.22,229.21,359.96,14.40,18.97,18.32,66.13,87.10,84.14,2025-10-09T17:24:10.060866
24.15368133,120.7038565,107.1,0.074,0.0,5.45,10,1.09,14,24.15363533,120.70393367,140.8,0.056,0.0,6.8999999999999995,9,1.38,14,24.15374433,120.70389917,120.3,0.315,0.0,6.8999999999999995,8,1.38,0,24.153676803101963,120.70388725324766,24.1536776026735,120.70388597810636,177.22,227.80,357.14,19.01,20.36,18.67,87.27,93.48,85.74,2025-10-09T17:24:10.263379
24.15368133,120.70385683,107.1,0.222,0.0,6.949999999999999,10,1.39,14,24.15363533,120.70393383,140.7,0.056,0.0,6.8999999999999995,9,1.38,14,24.15374417,120.7038995,120.3,0.241,0.0,6.8999999999999995,8,1.38,0,24.15367560621889,120.70389543411625,24.1536776232407,120.70388699827036,181.44,230.61,357.14,16.36,18.43,16.93,75.14,84.63,77.73,2025-10-09T17:24:10.465566
24.1536815,120.70385717,107.1,0.093,0.0,6.949999999999999,10,1.39,14,24.15363533,120.703934,140.7,0.111,0.0,6.8999999999999995,9,1.38,14,24.153744,120.7038995,120.3,0.185,0.0,6.8999999999999995,8,1.38,0,24.15367564274252,120.70389564063989,24.153677633551013,120.70388798958436,160.35,232.02,359.96,18.57,17.85,17.70,85.28,81.97,81.28,2025-10-09T17:24:10.666630
24.1536815,120.70385733,107.1,0.167,0.0,6.949999999999999,10,1.39,14,24.1536355,120.703934,140.7,0.259,0.0,6.8999999999999995,9,1.38,14,24.153744,120.70389933,120.3,0.167,0.0,6.8999999999999995,8,1.38,0,24.15367570948071,120.70389567305219,24.15367763735671,120.70388893126835,165.97,232.02,357.14,17.16,18.56,18.86,78.80,85.25,86.62,2025-10-09T17:24:10.868619
24.1536815,120.70385767,107.1,0.222,0.0,6.949999999999999,10,1.39,14,24.1536355,120.703934,140.7,0.222,0.0,6.8999999999999995,9,1.38,14,24.153744,120.7038995,120.3,0.537,0.0,6.8999999999999995,8,1.38,0,24.15367570948071,120.70389584620669,24.15367762935928,120.70388983620053,167.38,233.43,357.14,15.87,14.96,20.95,72.86,68.69,96.22,2025-10-09T17:24:11.071708
24.15368133,120.7038575,107.1,0.759,0.0,6.949999999999999,10,1.39,14,24.1536355,120.70393433,140.7,0.259,0.0,6.8999999999999995,9,1.38,14,24.15374383,120.70389933,120.4,0.259,0.0,6.8999999999999995,8,1.38,0,24.15367560621889,120.7038958724955,24.153677600726027,120.70389068885359,161.75,240.46,358.55,13.88,17.38,19.72,63.75,79.80,90.54,2025-10-09T17:24:11.274608
24.15368117,120.7038575,107.0,0.056,0.0,6.949999999999999,10,1.39,14,24.15363567,120.70393433,140.7,0.056,0.0,6.8999999999999995,9,1.38,14,24.15374383,120.7038995,120.4,0.333,0.0,6.8999999999999995,8,1.38,0,24.1536756071757,120.70389590586458,24.1536775627293,120.70389148888815,160.35,234.83,357.14,19.57,17.98,19.32,89.86,82.58,88.71,2025-10-09T17:24:11.477651
24.15368117,120.70385767,106.9,0.13,0.0,6.949999999999999,10,1.39,14,24.15363583,120.70393483,140.7,0.167,0.0,6.8999999999999995,9,1.38,14,24.15374383,120.7038995,120.4,0.333,0.0,6.8999999999999995,8,1.38,0,24.15367566998811,120.70389617204609,24.153677523004742,120.70389226009246,165.97,237.65,355.74,19.79,16.20,18.80,90.86,74.39,86.34,2025-10-09T17:24:11.680241
24.15368083,120.7038575,106.9,0.278,0.0,6.949999999999999,10,1.39,14,24.15363583,120.70393483,140.6,0.167,0.0,6.8999999999999995,9,1.38,14,24.15374417,120.70389967,120.3,0.167,0.0,6.8999999999999995,7,1.38,0,24.15367387210477,120.70389604661882,24.15367729314324,120.70389295642825,151.91,244.68,357.14,15.16,17.93,20.43,69.62,82.33,93.79,2025-10-09T17:24:11.882742
24.15368067,120.70385733,107.0,0.241,0.0,6.949999999999999,10,1.39,14,24.1536365,120.70393567,140.6,0.148,0.0,6.8999999999999995,9,1.38,14,24.15374417,120.70390017,120.3,0.593,0.0,6.8999999999999995,7,1.38,0,24.153674074311734,120.70389640106433,24.153677087097044,120.70389363529951,123.78,240.46,358.55,18.67,19.00,19.37,85.74,87.25,88.92,2025-10-09T17:24:12.084767
24.15368,120.70385617,107.3,1.222,0.0,6.949999999999999,10,1.39,14,24.153637,120.703936,140.3,0.222,0.0,6.8999999999999995,9,1.38,14,24.153744,120.70390033,120.4,0.463,0.0,6.8999999999999995,7,1.38,0,24.153673963217216,120.70389607313423,24.153676871902196,120.70389422515943,150.50,241.86,352.92,20.13,20.41,21.82,92.43,93.72,100.18,2025-10-09T17:24:12.287029
24.15368,120.70385633,107.3,0.167,0.0,5.45,10,1.09,14,24.153637,120.703936,140.1,0.222,0.0,6.8999999999999995,9,1.38,14,24.15374383,120.70390033,120.4,0.37,0.0,6.8999999999999995,7,1.38,0,24.15367520012464,120.70388782740343,24.153676754983344,120.70389385026394,147.69,227.80,350.11,21.62,18.09,20.79,99.26,83.05,95.48,2025-10-09T17:24:12.489622
24.15368,120.70385617,107.3,0.037,0.0,5.45,10,1.09,14,24.15363717,120.70393617,140.1,0.037,0.0,6.8999999999999995,9,1.38,14,24.15374367,120.7039005,120.4,0.611,0.0,6.8999999999999995,7,1.38,0,24.153675231965927,120.70388781845054,24.15367664533616,120.7038934820093,167.38,224.99,347.30,19.85,18.42,20.27,91.16,84.56,93.07,2025-10-09T17:24:12.691885
24.15367967,120.70385617,107.3,0.074,0.0,5.45,10,1.09,14,24.1536375,120.7039365,140.0,0.037,0.0,6.8999999999999995,9,1.38,14,24.15374367,120.70390033,120.5,0.389,0.0,6.8999999999999995,7,1.38,0,24.1536751580893,120.70388789984486,24.15367653187057,120.70389313206041,174.41,226.40,347.30,17.61,17.72,18.93,80.87,81.35,86.90,2025-10-09T17:24:12.894643
24.1536795,120.70385583,107.3,0.093,0.0,5.45,10,1.09,14,24.15363733,120.70393717,140.0,0.204,0.0,6.8999999999999995,9,1.38,14,24.15374383,120.70390033,120.5,0.315,0.0,6.8999999999999995,7,1.38,0,24.153675034060157,120.7038879288058,24.153676409457933,120.703892793484,170.19,224.99,345.89,20.58,15.83,18.82,94.51,72.69,86.41,2025-10-09T17:24:13.097045
24.15367933,120.70385567,107.4,0.389,0.0,5.45,10,1.09,14,24.15363717,120.7039375,139.8,0.333,0.0,6.8999999999999995,9,1.38,14,24.15374383,120.70390033,120.4,0.241,0.0,6.8999999999999995,7,1.38,0,24.153674890926247,120.703887947117,24.153676277078677,120.70389246606506,175.81,229.21,345.89,16.71,21.94,18.98,76.71,100.74,87.13,2025-10-09T17:24:13.299685
24.15367933,120.70385567,107.4,0.111,0.0,5.45,10,1.09,14,24.15363717,120.70393783,139.8,0.148,0.0,6.8999999999999995,9,1.38,14,24.15374383,120.70390017,120.5,0.148,0.0,6.8999999999999995,7,1.38,0,24.153674890926247,120.70388802990435,24.15367615110381,120.7038921575995,178.63,229.21,344.49,18.67,19.83,17.12,85.71,91.05,78.62,2025-10-09T17:24:13.502458
24.15367917,120.7038555,107.4,0.111,0.0,5.45,10,1.09,14,24.15363717,120.70393817,139.7,0.056,0.0,6.8999999999999995,9,1.38,14,24.15374383,120.7039005,120.4,0.148,0.0,6.8999999999999995,7,1.38,0,24.153674804161213,120.70388809194776,24.153676022180367,120.70389186514431,178.63,230.61,343.08,18.44,18.31,21.44,84.65,84.09,98.43,2025-10-09T17:24:13.704925
24.15367917,120.70385583,107.3,0.074,0.0,5.45,10,1.09,14,24.15363717,120.7039385,139.7,0.148,0.0,6.8999999999999995,9,1.38,14,24.15374383,120.70390083,120.3,0.167,0.0,6.8999999999999995,7,1.38,0,24.153674804161213,120.70388842194775,24.15367590070624,120.70389161870602,175.81,222.18,343.08,17.57,16.91,21.60,80.68,77.63,99.19,2025-10-09T17:24:13.907462
24.15367917,120.70385617,107.2,0.241,0.0,5.45,10,1.09,14,24.15363717,120.70393883,139.6,0.111,0.0,6.8999999999999995,9,1.38,14,24.15374417,120.703901,120.3,0.167,0.0,6.8999999999999995,7,1.38,0,24.153674851525132,120.70388873508166,24.15367579147767,120.7038914144381,180.03,220.77,341.67,16.66,19.52,21.25,76.52,89.64,97.59,2025-10-09T17:24:14.109821
24.1536795,120.70385717,107.2,0.296,0.0,5.45,10,1.09,14,24.15363717,120.70393883,139.5,0.111,0.0,6.8999999999999995,8,1.38,14,24.15374417,120.7039005,120.3,0.093,0.0,6.8999999999999995,7,1.38,0,24.153675799230836,120.7038882001352,24.15367578708954,120.70389116095438,180.03,222.18,341.67,14.96,16.52,20.71,68.70,75.85,95.10,2025-10-09T17:24:14.312303
24.15367967,120.70385717,107.0,0.056,0.0,5.45,10,1.09,14,24.15363717,120.70393967,139.5,0.259,0.0,6.8999999999999995,8,1.38,14,24.15374417,120.7039005,120.3,0.019,0.0,6.8999999999999995,7,1.38,0,24.15367589329055,120.70388845597681,24.153675793522357,120.70389094540137,177.22,223.58,340.27,16.20,18.64,20.66,74.40,85.57,94.86,2025-10-09T17:24:14.514731
24.15367967,120.70385717,106.9,0.056,0.0,5.45,10,1.09,14,24.15363717,120.70393967,139.2,0.259,0.0,6.8999999999999995,8,1.38,14,24.15374433,120.70390083,120.2,0.093,0.0,6.8999999999999995,7,1.38,0,24.153675916032025,120.70388850288109,24.15367580217197,120.7038907435702,174.41,216.55,338.86,19.21,17.70,21.93,88.20,81.28,100.72,2025-10-09T17:24:14.717960
24.1536795,120.70385783,106.8,0.426,0.0,5.45,10,1.09,14,24.15363683,120.70393967,139.3,0.333,0.0,6.8999999999999995,7,1.38,14,24.15374417,120.70390133,120.2,0.148,0.0,6.8999999999999995,8,1.38,0,24.15367787520274,120.70388816063175,24.153676015516726,120.70389051832603,194.10,227.80,336.05,16.01,19.60,20.49,73.54,90.01,94.08,2025-10-09T17:24:14.920471
24.15367967,120.70385817,106.7,0.148,0.0,5.45,10,1.09,14,24.153637,120.70394,139.3,0.167,0.0,6.8999999999999995,7,1.38,14,24.15374417,120.70390167,120.1,0.148,0.0,6.8999999999999995,8,1.38,0,24.153678017588092,120.70388849778907,24.153676232524553,120.70389034000749,198.31,229.21,336.05,16.74,20.56,19.11,76.88,94.42,87.77,2025-10-09T17:24:15.122850
24.15367933,120.70385817,106.7,0.148,0.0,5.45,10,1.09,14,24.153637,120.70394,139.2,0.389,0.0,6.8999999999999995,7,1.38,14,24.15374417,120.70390167,120.1,0.148,0.0,6.8999999999999995,8,1.38,0,24.153677829468663,120.70388849778907,24.153676417145554,120.70389016934331,192.69,229.21,337.46,19.95,19.31,19.47,91.60,88.65,89.41,2025-10-09T17:24:15.325238
24.1536795,120.70385883,106.6,0.444,0.0,5.45,10,1.09,14,24.153637,120.70394,139.2,0.389,0.0,6.8999999999999995,8,1.38,14,24.15374417,120.7039015,120.1,0.074,0.0,6.8999999999999995,8,1.38,0,24.153677109117186,120.70388985356526,24.15367651812068,120.70389015156249,181.44,219.36,337.46,19.68,18.25,21.23,90.35,83.81,97.50,2025-10-09T17:24:15.527413
24.15367933,120.70385917,106.6,0.222,0.0,5.45,10,1.09,14,24.15363733,120.70394033,139.1,0.278,0.0,6.8999999999999995,8,1.38,14,24.15374417,120.703901,120.2,0.111,0.0,6.8999999999999995,8,1.38,0,24.153677115438327,120.70389005684672,24.153676612773758,120.7038901557121,188.47,227.80,337.46,12.96,20.22,20.07,59.53,92.83,92.14,2025-10-09T17:24:15.730435
24.1536795,120.7038595,106.5,0.333,0.0,5.45,10,1.09,14,24.1536375,120.70394033,139.1,0.13,0.0,6.8999999999999995,8,1.38,14,24.153744,120.70390067,120.3,0.13,0.0,6.8999999999999995,8,1.38,0,24.15367723130813,120.70389018326146,24.153676712974164,120.70389017275421,180.03,227.80,338.86,16.89,17.03,22.29,77.54,78.18,102.37,2025-10-09T17:24:15.932318
24.1536795,120.70385983,106.5,0.241,0.0,5.45,10,1.09,14,24.15363783,120.70394,139.0,0.037,0.0,6.8999999999999995,8,1.38,14,24.153744,120.7039005,120.3,0.074,0.0,8.299999999999999,8,1.66,0,24.153673881487418,120.70388970579651,24.15367647211284,120.70389013068909,181.44,229.21,336.05,15.44,19.16,20.49,70.89,87.96,94.09,2025-10-09T17:24:16.135731
24.15367933,120.70386,106.5,0.296,0.0,6.949999999999999,9,1.39,14,24.15363783,120.70394,139.0,0.185,0.0,6.8999999999999995,8,1.38,14,24.15374383,120.70389983,120.4,0.037,0.0,5.550000000000001,7,1.11,0,24.153681142030095,120.7038992146268,24.15367700588692,120.70389113354662,188.47,227.80,336.05,16.96,18.67,19.28,77.86,85.74,88.52,2025-10-09T17:24:16.336799
24.15367983,120.70386083,106.2,0.37,0.0,6.949999999999999,9,1.39,14,24.153638,120.70393967,139.0,0.241,0.0,6.8999999999999995,8,1.38,14,24.15374383,120.70389983,120.5,0.037,0.0,5.550000000000001,7,1.11,0,24.15368139293798,120.70389941033662,24.153677533934538,120.70389209906048,178.63,223.58,336.05,15.39,16.79,22.41,70.65,77.10,102.91,2025-10-09T17:24:16.539754
24.15368033,120.70386217,105.9,0.519,0.0,6.949999999999999,9,1.39,14,24.153638,120.70393933,139.0,0.019,0.0,6.8999999999999995,8,1.38,14,24.15374383,120.70389917,120.6,0.148,0.0,5.550000000000001,7,1.11,0,24.153681582533324,120.70389962412983,24.153678049369564,120.70389302917513,181.44,222.18,333.24,17.99,19.24,21.16,82.61,88.34,97.15,2025-10-09T17:24:16.742634
24.1536805,120.70386333,105.8,0.37,0.0,6.949999999999999,9,1.39,14,24.153638,120.70393933,139.1,0.278,0.0,6.8999999999999995,9,1.38,14,24.15374383,120.70389933,120.6,0.056,0.0,5.550000000000001,7,1.11,0,24.153680622182346,120.70390102658693,24.153678433436898,120.7038940473513,177.22,217.96,334.64,19.30,17.11,19.89,88.63,78.57,91.35,2025-10-09T17:24:16.944832
24.1536805,120.7038635,105.7,0.074,0.0,6.949999999999999,9,1.39,14,24.15363817,120.70393883,139.1,0.111,0.0,6.8999999999999995,9,1.38,14,24.15374367,120.70389917,120.7,0.056,0.0,5.550000000000001,7,1.11,0,24.153680645400552,120.70390086105286,24.15367879142961,120.70389498021444,184.25,233.43,331.83,11.91,18.12,21.91,54.69,83.21,100.63,2025-10-09T17:24:17.145987
24.1536805,120.7038635,105.7,0.074,0.0,6.949999999999999,9,1.39,14,24.15363833,120.70393833,139.2,0.13,0.0,6.8999999999999995,9,1.38,14,24.15374367,120.70389917,120.7,0.074,0.0,5.550000000000001,7,1.11,0,24.153680705508293,120.70390067321617,24.153679127807155,120.70389582780214,181.44,199.68,326.21,19.17,22.16,19.58,88.01,101.74,89.89,2025-10-09T17:24:17.349055
24.15368083,120.70386417,105.6,0.241,0.0,6.949999999999999,9,1.39,14,24.15363833,120.70393833,139.2,0.167,0.0,6.8999999999999995,9,1.38,14,24.1537435,120.70389933,120.7,0.056,0.0,5.550000000000001,7,1.11,0,24.153680784516496,120.70390096195503,24.15367944661095,120.70389664512619,192.69,222.18,324.80,20.58,21.82,20.44,94.50,100.20,93.87,2025-10-09T17:24:17.551501
24.15368133,120.70386467,105.4,0.444,0.0,6.949999999999999,9,1.39,14,24.15363817,120.70393833,139.2,0.185,0.0,6.8999999999999995,9,1.38,14,24.1537435,120.703899,120.7,0.056,0.0,8.299999999999999,7,1.66,0,24.153670682164265,120.70390140040703,24.153678788596245,120.70389736855383,165.97,198.27,331.83,18.91,20.27,21.30,86.85,93.07,97.80,2025-10-09T17:24:17.753995
24.153681,120.70386417,105.5,0.222,0.0,6.949999999999999,9,1.39,14,24.15363867,120.70393867,139.2,0.222,0.0,6.8999999999999995,9,1.38,14,24.15374333,120.70389867,120.8,0.074,0.0,5.550000000000001,7,1.11,0,24.15368093200765,120.70390092201811,24.153679126453728,120.70389806845623,188.47,226.40,323.39,19.46,20.46,19.06,89.35,93.94,87.51,2025-10-09T17:24:17.956926
24.153681,120.703865,105.6,0.556,0.0,6.949999999999999,9,1.39,14,24.15363883,120.70393883,138.9,0.259,0.0,6.8999999999999995,8,1.38,14,24.15374333,120.7038985,120.9,0.037,0.0,5.550000000000001,7,1.11,0,24.15368200586687,120.70390034260976,24.153679550115044,120.70389864898279,188.47,223.58,324.80,22.99,19.91,22.97,105.55,91.42,105.46,2025-10-09T17:24:18.161358
24.15368083,120.70386467,105.5,0.259,0.0,6.949999999999999,9,1.39,14,24.153639,120.70393883,138.6,0.056,0.0,6.8999999999999995,8,1.38,14,24.15374333,120.703898,120.9,0.074,0.0,5.4,8,1.08,0,24.153685139786376,120.70389998062643,24.15368027616272,120.70389914665441,177.22,215.15,326.21,20.16,16.67,20.09,92.59,76.57,92.26,2025-10-09T17:24:18.363618
24.15368083,120.70386467,105.6,0.259,0.0,5.45,10,1.09,14,24.15363917,120.70393867,138.6,0.056,0.0,6.8999999999999995,8,1.38,14,24.153743,120.70389733,121.0,0.019,0.0,5.4,8,1.08,0,24.15368421355524,120.70389245104614,24.15368086393596,120.70389870937524,185.66,219.36,323.39,16.99,18.58,20.69,78.03,85.32,95.01,2025-10-09T17:24:18.565783
24.1536805,120.70386467,105.6,0.111,0.0,5.45,10,1.09,14,24.15363933,120.703938,138.6,0.537,0.0,6.8999999999999995,8,1.38,14,24.15374267,120.70389733,121.2,0.148,0.0,6.8999999999999995,8,1.38,0,24.153678108122147,120.70389175957393,24.153680735336103,120.70389824961185,173.00,205.30,323.39,19.32,17.01,22.92,88.71,78.10,105.24,2025-10-09T17:24:18.768263
24.15368033,120.70386517,105.6,0.315,0.0,5.45,10,1.09,14,24.1536395,120.70393767,138.5,0.463,0.0,6.8999999999999995,8,1.38,14,24.15374283,120.7038975,121.3,0.13,0.0,6.8999999999999995,8,1.38,0,24.153678092154387,120.70389195927079,24.153680603111336,120.7038978208456,182.85,227.80,320.58,16.32,19.99,20.45,74.95,91.79,93.88,2025-10-09T17:24:18.970366
24.1536805,120.7038655,105.5,0.204,0.0,5.45,10,1.09,14,24.15363967,120.7039375,138.4,0.278,0.0,6.8999999999999995,8,1.38,14,24.15374283,120.70389767,121.3,0.093,0.0,6.8999999999999995,8,1.38,0,24.153678235089288,120.7038921145417,24.153680485291854,120.70389741971512,167.38,208.11,321.99,20.73,14.99,21.48,95.18,68.81,98.64,2025-10-09T17:24:19.172507
24.15368033,120.703866,105.5,0.407,0.0,5.45,10,1.09,14,24.15363983,120.70393717,138.3,0.37,0.0,6.8999999999999995,8,1.38,14,24.15374283,120.70389783,121.3,0.13,0.0,6.8999999999999995,8,1.38,0,24.153678190663374,120.7038923126465,24.153680362507284,120.70389705084672,184.25,224.99,317.77,14.85,18.89,20.88,68.18,86.76,95.87,2025-10-09T17:24:19.375024
24.15368033,120.703866,105.4,0.222,0.0,5.45,10,1.09,14,24.15364,120.70393717,138.3,0.093,0.0,6.8999999999999995,8,1.38,14,24.15374267,120.70389817,121.2,0.167,0.0,6.8999999999999995,8,1.38,0,24.153678215937397,120.7038923667767,24.153680242423256,120.70389669833727,167.38,213.74,320.58,19.48,20.73,22.23,89.47,95.19,102.09,2025-10-09T17:24:19.577402
24.1536805,120.70386633,105.4,0.463,0.0,5.45,10,1.09,14,24.15364,120.70393717,138.2,0.093,0.0,6.8999999999999995,8,1.38,14,24.15374267,120.70389783,121.2,0.111,0.0,6.8999999999999995,8,1.38,0,24.153678308125247,120.70389249159936,24.153680132740906,120.70389637067667,177.22,219.36,316.36,15.39,18.75,18.44,70.68,86.09,84.69,2025-10-09T17:24:19.779391
24.15368017,120.70386667,105.3,0.296,0.0,5.45,10,1.09,14,24.15364,120.70393733,138.1,0.222,0.0,6.8999999999999995,8,1.38,14,24.15374267,120.703898,121.2,0.13,0.0,6.8999999999999995,8,1.38,0,24.153678129172363,120.7038927508021,24.15368000572121,120.70389608198796,177.22,224.99,313.55,17.52,21.09,17.92,80.44,96.83,82.29,2025-10-09T17:24:19.980396
24.15368033,120.70386683,105.3,0.167,0.0,5.45,10,1.09,14,24.15364,120.703937,138.0,0.13,0.0,6.8999999999999995,8,1.38,14,24.15374267,120.703898,121.2,0.093,0.0,6.8999999999999995,8,1.38,0,24.153678215937397,120.70389273905816,24.153679890054615,120.70389580282928,164.56,219.36,313.55,16.76,18.27,17.62,76.94,83.90,80.91,2025-10-09T17:24:20.183304
24.15368033,120.70386767,105.2,0.444,0.0,5.45,10,1.09,14,24.15364,120.70393717,137.9,0.019,0.0,6.8999999999999995,8,1.38,14,24.15374267,120.70389817,121.2,0.167,0.0,6.8999999999999995,8,1.38,0,24.153678215937397,120.70389327238674,24.15367977812088,120.70389559254001,175.81,226.40,310.74,14.17,20.16,18.85,65.04,92.56,86.57,2025-10-09T17:24:20.385821
24.15368033,120.70386817,105.0,0.13,0.0,5.45,10,1.09,14,24.15364017,120.70393717,137.9,0.167,0.0,6.8999999999999995,8,1.38,14,24.15374267,120.70389833,121.2,0.13,0.0,6.8999999999999995,8,1.38,0,24.153678266684448,120.7038935690005,24.153679714734935,120.70389544925,174.41,224.99,309.33,17.82,19.22,20.10,81.82,88.25,92.31,2025-10-09T17:24:20.789088
24.15368033,120.70386817,104.9,0.056,0.0,5.45,10,1.09,14,24.1536405,120.7039365,137.8,0.037,0.0,6.8999999999999995,8,1.38,14,24.15374233,120.7038985,121.2,0.167,0.0,6.8999999999999995,8,1.38,0,24.15367831106325,120.7038933960625,24.15367959813254,120.70389524109683,167.38,224.99,305.11,17.19,20.14,14.57,78.92,92.46,66.90,2025-10-09T17:24:20.992387
24.1536805,120.70386833,104.8,0.111,0.0,5.45,10,1.09,14,24.15364083,120.703936,137.8,0.074,0.0,6.8999999999999995,8,1.38,14,24.1537425,120.70389817,121.2,0.13,0.0,6.8999999999999995,8,1.38,0,24.153678528825186,120.70389328103334,24.15367951200528,120.7038950338796,170.19,220.77,303.71,17.32,19.00,14.07,79.52,87.24,64.61,2025-10-09T17:24:21.194875
24.15368033,120.70386867,104.7,0.315,0.0,5.45,10,1.09,14,24.15364083,120.703936,137.8,0.074,0.0,6.8999999999999995,8,1.38,14,24.15374233,120.703898,121.3,0.037,0.0,6.8999999999999995,9,1.38,0,24.15367965681904,120.70389352735322,24.15367955773754,120.70389487274844,175.81,219.36,302.30,16.35,19.84,18.87,75.10,91.11,86.63,2025-10-09T17:24:21.397100
24.15368017,120.7038685,104.7,0.407,0.0,5.45,10,1.09,14,24.15364117,120.70393567,137.7,0.148,0.0,6.8999999999999995,8,1.38,14,24.15374233,120.703898,121.3,0.093,0.0,6.8999999999999995,9,1.38,0,24.153679671260715,120.70389334037735,24.153679600139647,120.70389470073904,171.60,217.96,299.49,15.29,20.76,19.16,70.22,95.30,87.97,2025-10-09T17:24:21.599510
24.15368033,120.70386867,104.7,0.093,0.0,5.45,10,1.09,14,24.15364117,120.70393533,137.7,0.111,0.0,6.8999999999999995,8,1.38,14,24.1537425,120.70389767,121.3,0.148,0.0,5.4,10,1.08,0,24.153687630887386,120.70389382327177,24.153680589095377,120.70389461359325,168.78,210.93,299.49,17.73,18.05,19.37,81.42,82.88,88.92,2025-10-09T17:24:21.802109
24.1536805,120.70386867,104.6,0.148,0.0,5.45,10,1.09,14,24.15364133,120.70393517,137.7,0.074,0.0,6.8999999999999995,8,1.38,14,24.15374217,120.703898,121.3,0.093,0.0,5.4,10,1.08,0,24.153687658960212,120.70389387428146,24.153681500164506,120.7038945379902,188.47,226.40,295.27,15.51,22.99,15.94,71.24,105.57,73.21,2025-10-09T17:24:22.004959
24.15368083,120.70386967,104.5,0.389,0.0,5.45,10,1.09,14,24.15364133,120.70393533,137.5,0.241,0.0,6.8999999999999995,8,1.38,14,24.15374233,120.703898,121.3,0.074,0.0,5.4,10,1.08,0,24.153687857070583,120.70389438044486,24.153682360419584,120.70389452826203,161.75,220.77,298.08,18.66,18.78,18.14,85.67,86.23,83.28,2025-10-09T17:24:22.207083
24.153681,120.70386967,104.2,0.0,0.0,5.45,10,1.09,14,24.15364167,120.70393517,137.5,0.148,0.0,6.8999999999999995,8,1.38,14,24.15374217,120.70389783,121.3,0.148,0.0,6.8999999999999995,10,1.38,0,24.153681416274143,120.70389386366193,24.15368241624543,120.7038944428955,178.63,217.96,295.27,21.36,19.56,16.03,98.06,89.81,73.60,2025-10-09T17:24:22.409598
24.153681,120.70387,104.1,0.167,0.0,5.45,10,1.09,14,24.15364183,120.70393533,137.4,0.333,0.0,6.8999999999999995,8,1.38,14,24.15374183,120.70389817,121.3,0.093,0.0,6.8999999999999995,10,1.38,0,24.153681397135106,120.70389414677126,24.15368245882409,120.70389439403839,173.00,220.77,295.27,16.81,16.86,21.54,77.20,77.41,98.93,2025-10-09T17:24:22.612112
24.15368083,120.7038705,104.0,0.204,0.0,6.949999999999999,10,1.39,14,24.15364183,120.70393517,137.3,0.167,0.0,6.8999999999999995,8,1.38,14,24.153742,120.70389867,121.3,0.074,0.0,6.8999999999999995,10,1.38,0,24.153681469424846,120.70390047752991,24.153682520327866,120.70389500428368,192.69,241.86,292.46,17.75,19.24,21.39,81.53,88.36,98.24,2025-10-09T17:24:22.814504
24.1536805,120.70387083,104.0,0.444,0.0,6.949999999999999,10,1.39,14,24.15364183,120.70393483,137.3,0.241,0.0,6.8999999999999995,8,1.38,14,24.153742,120.70389883,121.2,0.222,0.0,6.8999999999999995,10,1.38,0,24.153681336999934,120.70390052613509,24.153682556111512,120.70389559216737,153.31,224.99,298.08,20.04,18.96,19.37,92.04,87.04,88.94,2025-10-09T17:24:23.016974
24.15368067,120.70387083,103.9,0.333,0.0,6.949999999999999,10,1.39,14,24.15364183,120.70393467,137.3,0.167,0.0,6.8999999999999995,8,1.38,14,24.15374217,120.70389883,121.1,0.167,0.0,6.8999999999999995,10,1.38,0,24.153681445931273,120.7039004686587,24.153682591158248,120.70389614500652,139.25,240.46,298.08,16.74,19.35,19.83,76.87,88.84,91.07,2025-10-09T17:24:23.218869
24.15368067,120.7038705,103.9,0.241,0.0,6.949999999999999,10,1.39,14,24.15364217,120.70393483,137.2,0.482,0.0,6.8999999999999995,8,1.38,14,24.15374217,120.703899,121.0,0.148,0.0,6.8999999999999995,8,1.38,0,24.15367851939613,120.70390050658345,24.15368231868224,120.70389666438604,250.35,282.65,275.58,19.18,20.62,21.91,88.05,94.66,100.60,2025-10-09T17:24:23.421430
24.15368083,120.70387117,103.9,0.259,0.0,6.949999999999999,10,1.39,14,24.153642,120.70393467,137.1,0.148,0.0,6.8999999999999995,8,1.38,14,24.153742,120.70389917,121.0,0.241,0.0,6.8999999999999995,8,1.38,0,24.153678488482875,120.7039007628123,24.153682047678412,120.70389718040113,158.94,234.83,291.05,21.74,23.36,15.21,99.84,107.26,69.85,2025-10-09T17:24:23.624149
24.15368067,120.70387117,103.8,0.093,0.0,6.949999999999999,10,1.39,14,24.15364217,120.7039345,137.0,0.093,0.0,6.8999999999999995,8,1.38,14,24.15374217,120.7038995,121.0,0.148,0.0,6.8999999999999995,8,1.38,0,24.15367851939613,120.70390076507609,24.153681785713417,120.70389766484352,216.60,310.77,275.58,17.96,20.61,22.79,82.49,94.64,104.66,2025-10-09T17:24:23.825968
24.153681,120.70387167,103.8,0.593,0.0,6.949999999999999,10,1.39,14,24.1536425,120.70393467,136.9,0.352,0.0,6.8999999999999995,9,1.38,14,24.15374183,120.70389967,120.9,0.13,0.0,6.8999999999999995,8,1.38,0,24.15367782601027,120.70390189847359,24.1536814621678,120.70389823592835,213.78,241.86,274.17,19.70,18.90,18.60,90.44,86.78,85.43,2025-10-09T17:24:24.028642
24.153681,120.703872,103.7,0.019,0.0,6.949999999999999,10,1.39,14,24.1536425,120.70393383,136.9,0.259,0.0,6.8999999999999995,9,1.38,14,24.153742,120.70389983,120.9,0.074,0.0,6.8999999999999995,9,1.38,0,24.153679395450762,120.70390169014796,24.153681310983504,120.70389875132135,210.97,293.90,272.77,22.16,16.69,21.03,101.75,76.62,96.55,2025-10-09T17:24:24.230636
24.15368133,120.70387233,103.6,0.222,0.0,6.949999999999999,10,1.39,14,24.1536425,120.70393383,136.9,0.259,0.0,6.8999999999999995,9,1.38,14,24.153742,120.70389983,120.7,0.056,0.0,6.949999999999999,9,1.39,0,24.1536793342329,120.70390182874918,24.15368115808888,120.70389924386767,181.44,224.99,278.39,15.46,19.84,19.92,70.98,91.10,91.45,2025-10-09T17:24:24.433202
24.15368117,120.7038725,103.4,0.426,0.0,6.949999999999999,10,1.39,14,24.153643,120.70393367,136.7,0.296,0.0,6.8999999999999995,9,1.38,14,24.15374167,120.70390033,120.8,0.204,0.0,6.949999999999999,9,1.39,0,24.15367939168508,120.7039019422338,24.153681016042203,120.70389971267467,196.91,241.86,272.77,18.93,18.20,22.78,86.93,83.58,104.62,2025-10-09T17:24:24.635281
24.15368133,120.70387283,103.4,0.296,0.0,6.949999999999999,10,1.39,14,24.15364333,120.70393367,136.7,0.63,0.0,6.8999999999999995,9,1.38,14,24.153742,120.70390067,120.8,0.185,0.0,6.949999999999999,9,1.39,0,24.153679653254738,120.70390214752483,24.153680906111397,120.70390016722071,199.72,258.74,271.36,19.76,20.42,18.95,90.72,93.76,87.01,2025-10-09T17:24:24.837190
24.15368183,120.70387333,103.3,0.111,0.0,6.949999999999999,10,1.39,14,24.15364333,120.70393367,136.7,0.407,0.0,6.8999999999999995,9,1.38,14,24.15374183,120.70390117,120.6,0.444,0.0,6.949999999999999,9,1.39,0,24.153679818292634,120.70390245534298,24.15368081753472,120.70390061832394,174.41,230.61,275.58,19.70,20.67,21.02,90.44,94.90,96.52,2025-10-09T17:24:25.038907
24.15368183,120.70387367,103.2,0.13,0.0,6.949999999999999,10,1.39,14,24.1536435,120.70393367,136.6,0.407,0.0,6.8999999999999995,9,1.38,14,24.15374167,120.703901,120.7,0.241,0.0,6.949999999999999,8,1.39,0,24.15367835023188,120.70390259371231,24.15368058050802,120.70390104405817,202.53,261.55,269.96,16.19,21.87,21.76,74.35,100.42,99.91,2025-10-09T17:24:25.241393
24.15368267,120.70387483,103.1,0.111,0.0,6.949999999999999,10,1.39,14,24.15364367,120.70393333,136.6,0.296,0.0,6.8999999999999995,9,1.38,14,24.15374167,120.70390117,120.6,0.278,0.0,6.949999999999999,7,1.39,0,24.153677199919393,120.7039030158708,24.153680236840458,120.70390147484446,192.69,253.11,269.96,18.39,19.23,18.30,84.46,88.31,84.02,2025-10-09T17:24:25.442198
24.15368317,120.70387533,102.9,0.278,0.0,6.949999999999999,10,1.39,14,24.153644,120.70393317,136.3,0.13,0.0,6.8999999999999995,9,1.38,14,24.15374117,120.703901,120.6,0.241,0.0,6.8999999999999995,7,1.38,0,24.153677618172097,120.70390312762397,24.153679953873763,120.70390188245169,203.94,258.74,269.96,17.27,22.00,19.71,79.29,101.00,90.51,2025-10-09T17:24:25.645138
24.1536835,120.7038765,102.8,0.389,0.0,6.949999999999999,10,1.39,14,24.15364417,120.70393317,136.3,0.278,0.0,6.8999999999999995,9,1.38,14,24.15374083,120.703901,120.6,0.333,0.0,6.8999999999999995,7,1.38,0,24.153677765810947,120.70390362074973,24.153679702834165,120.70390230752164,196.91,247.49,269.96,20.94,22.64,15.69,96.17,103.96,72.04,2025-10-09T17:24:25.847424
24.15368417,120.70387717,102.6,0.167,0.0,6.949999999999999,10,1.39,14,24.15364417,120.703933,136.3,0.13,0.0,6.8999999999999995,9,1.38,14,24.15374083,120.70390067,120.7,0.204,0.0,6.8999999999999995,7,1.38,0,24.153678048199186,120.70390377661707,24.153679495826346,120.70390271273835,198.31,255.93,268.55,18.75,20.99,19.12,86.08,96.38,87.82,2025-10-09T17:24:26.049904
24.15368433,120.70387767,102.4,0.185,0.0,6.949999999999999,10,1.39,14,24.1536445,120.70393317,136.0,0.241,0.0,6.8999999999999995,9,1.38,14,24.15374067,120.7039005,120.6,0.185,0.0,6.8999999999999995,7,1.38,0,24.15367822027275,120.70390402583905,24.153679319803505,120.7039031084575,198.31,254.52,268.55,22.82,21.00,20.24,104.80,96.41,92.95,2025-10-09T17:24:26.252418
24.1536845,120.70387833,102.3,0.259,0.0,6.949999999999999,10,1.39,14,24.1536445,120.70393283,136.0,0.074,0.0,6.8999999999999995,9,1.38,14,24.1537405,120.7039005,120.6,0.167,0.0,6.8999999999999995,7,1.38,0,24.153678261991114,120.70390416717878,24.15367915981312,120.70390348273943,195.50,253.11,268.55,20.40,20.39,19.87,93.65,93.62,91.26,2025-10-09T17:24:26.455002
24.15368483,120.70387867,102.4,0.111,0.0,6.949999999999999,10,1.39,14,24.15364467,120.70393317,135.8,0.333,0.0,6.8999999999999995,9,1.38,14,24.1537405,120.70390067,120.5,0.056,0.0,6.8999999999999995,7,1.38,0,24.15367846949473,120.7039044772464,24.153679032909587,120.70390385462873,201.13,254.52,267.14,22.87,19.65,18.24,105.01,90.22,83.76,2025-10-09T17:24:26.657418
24.15368533,120.70387917,102.2,0.13,0.0,6.949999999999999,10,1.39,14,24.15364467,120.70393317,135.7,0.204,0.0,6.8999999999999995,9,1.38,14,24.15374067,120.70390067,120.5,0.074,0.0,6.8999999999999995,7,1.38,0,24.153678710164606,120.7039046879839,24.153678940725367,120.70390421348982,198.31,254.52,269.96,15.95,21.33,17.01,73.23,97.95,78.11,2025-10-09T17:24:26.859427
24.15368567,120.70387983,102.1,0.13,0.0,6.949999999999999,10,1.39,14,24.153645,120.70393317,135.5,0.185,0.0,6.8999999999999995,9,1.38,14,24.1537405,120.7039005,120.5,0.074,0.0,6.8999999999999995,7,1.38,0,24.153678956342937,120.703904936225,24.153678882094532,120.70390456405624,202.53,255.93,268.55,22.22,21.15,20.84,102.02,97.11,95.69,2025-10-09T17:24:27.061455
24.15368583,120.70388033,102.1,0.167,0.0,6.949999999999999,10,1.39,14,24.153645,120.70393283,135.5,0.204,0.0,6.8999999999999995,9,1.38,14,24.1537405,120.70390033,120.5,0.167,0.0,6.8999999999999995,7,1.38,0,24.153679023778935,120.70390498019637,24.15367883615266,120.703904885134,191.28,254.52,268.55,19.47,22.95,21.77,89.38,105.38,99.96,2025-10-09T17:24:27.263811
24.153686,120.70388067,102.0,0.13,0.0,6.949999999999999,10,1.39,14,24.15364517,120.70393267,135.4,0.333,0.0,6.8999999999999995,9,1.38,14,24.1537405,120.70390017,120.5,0.093,0.0,6.8999999999999995,7,1.38,0,24.153679163846554,120.70390503093385,24.15367880971007,120.7039051792228,196.91,248.90,268.55,22.62,20.32,19.18,103.87,93.32,88.06,2025-10-09T17:24:27.465684
24.15368567,120.70388067,102.0,0.13,0.0,6.949999999999999,10,1.39,14,24.153645,120.70393217,135.3,0.0,0.0,6.8999999999999995,9,1.38,14,24.1537405,120.7039,120.6,0.056,0.0,5.4,8,1.08,0,24.15368709857746,120.70390416476442,24.153679662772888,120.70390536091902,203.94,250.30,268.55,16.91,18.28,20.79,77.63,83.93,95.45,2025-10-09T17:24:27.668835
24.15368567,120.70388067,102.1,0.222,0.0,6.949999999999999,10,1.39,14,24.15364517,120.7039325,135.4,0.389,0.0,6.8999999999999995,9,1.38,14,24.15374033,120.70389983,120.6,0.037,0.0,5.4,8,1.08,0,24.15368710947942,120.70390423153961,24.1536804604764,120.70390552321422,201.13,265.77,268.55,20.24,24.35,15.25,92.93,111.83,70.01,2025-10-09T17:24:27.869845
24.15368567,120.70388067,102.1,0.074,0.0,6.949999999999999,10,1.39,14,24.15364517,120.7039325,135.3,0.389,0.0,6.8999999999999995,9,1.38,14,24.1537405,120.70389933,120.7,0.056,0.0,5.4,8,1.08,0,24.15368715794277,120.70390408900036,24.153681209519902,120.70390564386355,191.28,246.08,269.96,15.92,19.98,21.94,73.11,91.75,100.74,2025-10-09T17:24:28.072779
24.15368567,120.703881,102.1,0.13,0.0,6.949999999999999,10,1.39,14,24.15364517,120.70393217,135.2,0.056,0.0,6.8999999999999995,9,1.38,14,24.15374033,120.70389883,120.8,0.056,0.0,5.4,8,1.08,0,24.15368710947942,120.7039039519081,24.153681902352297,120.7039057273936,203.94,265.77,267.14,21.45,20.44,20.09,98.51,93.84,92.23,2025-10-09T17:24:28.275244
24.15368567,120.70388117,102.1,0.407,0.0,6.949999999999999,10,1.39,14,24.1536455,120.70393217,135.1,0.204,0.0,6.8999999999999995,9,1.38,14,24.15374017,120.70389833,120.8,0.111,0.0,5.4,8,1.08,0,24.1536871791054,120.7039038715402,24.153682554751022,120.70390578271804,194.10,250.30,268.55,21.01,23.53,19.74,96.47,108.03,90.63,2025-10-09T17:24:28.477795
24.15368583,120.70388117,102.1,0.111,0.0,6.949999999999999,10,1.39,14,24.15364567,120.70393217,135.1,0.111,0.0,6.8999999999999995,9,1.38,14,24.15374017,120.70389833,120.9,0.111,0.0,5.4,8,1.08,0,24.153687296984923,120.7039038715402,24.1536831734559,120.703905820449,195.50,257.33,268.55,20.85,17.87,18.77,95.76,82.04,86.17,2025-10-09T17:24:28.679531
24.15368583,120.70388117,102.1,0.278,0.0,6.949999999999999,10,1.39,14,24.15364583,120.70393233,134.8,0.185,0.0,6.8999999999999995,9,1.38,14,24.15374,120.70389817,120.9,0.13,0.0,5.4,8,1.08,0,24.153687304394808,120.70390388180087,24.15368374853936,120.70390584381283,194.10,247.49,267.14,19.61,15.30,20.90,90.03,70.26,95.99,2025-10-09T17:24:28.881748
24.15368567,120.7038815,102.2,0.519,0.0,6.949999999999999,10,1.39,14,24.15364567,120.70393267,134.7,0.111,0.0,6.8999999999999995,9,1.38,14,24.15374,120.70389733,121.0,0.0,0.0,5.4,8,1.08,0,24.153687190007368,120.70390388175109,24.153684269689634,120.70390585322527,201.13,253.11,267.14,21.93,18.29,19.62,100.69,83.97,90.10,2025-10-09T17:24:29.084264
24.15368567,120.7038815,102.2,0.074,0.0,6.949999999999999,10,1.39,14,24.15364583,120.703933,134.6,0.093,0.0,6.8999999999999995,9,1.38,14,24.15374,120.703897,121.0,0.074,0.0,5.4,8,1.08,0,24.1536872458806,120.70390390291372,24.153684756640416,120.70390585160084,195.50,250.30,267.14,23.04,21.31,21.11,105.78,97.85,96.96,2025-10-09T17:24:29.286525
24.15368567,120.70388183,102.1,0.204,0.0,6.949999999999999,10,1.39,14,24.15364583,120.703933,134.5,0.222,0.0,6.8999999999999995,9,1.38,14,24.15373967,120.703896,121.1,0.148,0.0,5.4,8,1.08,0,24.153687151804693,120.70390373852076,24.15368519458882,120.703905819681,192.69,251.71,267.14,23.15,18.91,19.30,106.29,86.81,88.61,2025-10-09T17:24:29.488550
24.15368583,120.703882,102.1,0.389,0.0,6.949999999999999,10,1.39,14,24.15364583,120.70393317,134.3,0.074,0.0,6.8999999999999995,9,1.38,14,24.15373967,120.7038955,121.2,0.148,0.0,5.4,8,1.08,0,24.153687210318896,120.70390371751814,24.153685603095997,120.70390577650872,201.13,250.30,265.74,20.07,20.42,21.37,92.14,93.75,98.14,2025-10-09T17:24:29.690549
24.15368583,120.70388217,102.1,0.056,0.0,6.949999999999999,10,1.39,14,24.15364583,120.70393317,134.3,0.074,0.0,6.8999999999999995,9,1.38,14,24.15373967,120.7038955,121.2,0.148,0.0,5.4,8,1.08,0,24.153687210318896,120.7039037796895,24.153685977939368,120.70390573236678,202.53,247.49,264.33,22.62,22.20,21.88,103.85,101.93,100.49,2025-10-09T17:24:29.893243
24.15368583,120.70388233,102.1,0.093,0.0,6.949999999999999,10,1.39,14,24.15364583,120.70393317,134.3,0.093,0.0,6.8999999999999995,9,1.38,14,24.15373967,120.70389517,121.2,0.093,0.0,5.4,8,1.08,0,24.153687210318896,120.7039037441278,24.153686319145265,120.7039056763454,189.88,251.71,264.33,21.22,20.65,19.98,97.45,94.81,91.75,2025-10-09T17:24:30.095366
24.15368567,120.7038825,102.1,0.074,0.0,6.949999999999999,10,1.39,14,24.15364583,120.703933,134.2,0.093,0.0,6.8999999999999995,9,1.38,14,24.15373983,120.70389483,121.2,0.037,0.0,5.4,8,1.08,0,24.153687197417256,120.70390365000715,24.15368662746806,120.703905603846,192.69,265.77,262.92,25.28,19.55,22.29,116.10,89.78,102.37,2025-10-09T17:24:30.297381
24.15368567,120.7038825,102.1,0.056,0.0,6.949999999999999,10,1.39,14,24.15364583,120.70393317,134.2,0.13,0.0,6.8999999999999995,8,1.38,14,24.15373983,120.70389417,121.2,0.0,0.0,5.4,8,1.08,0,24.15368812042617,120.70390285968338,24.153687001555852,120.70390544393766,188.47,239.05,264.33,20.43,23.03,22.09,93.81,105.73,101.44,2025-10-09T17:24:30.500781
24.1536855,120.70388267,102.1,0.074,0.0,6.949999999999999,10,1.39,14,24.15364583,120.703933,134.2,0.222,0.0,6.8999999999999995,8,1.38,14,24.15373983,120.70389383,121.3,0.056,0.0,5.4,8,1.08,0,24.153688056867633,120.70390276725578,24.153687337113933,120.70390527535078,203.94,257.33,260.11,17.72,19.71,19.24,81.35,90.52,88.33,2025-10-09T17:24:30.703230
24.1536855,120.70388267,102.1,0.056,0.0,6.949999999999999,10,1.39,14,24.15364583,120.703933,134.1,0.222,0.0,6.8999999999999995,8,1.38,14,24.15373983,120.70389383,121.3,0.056,0.0,5.4,8,1.08,0,24.153688056867633,120.70390276725578,24.15368764047561,120.70390510847363,188.47,243.27,264.33,17.66,20.43,18.58,81.10,93.79,85.34,2025-10-09T17:24:30.905992
24.15368533,120.703883,102.1,0.222,0.0,6.949999999999999,10,1.39,14,24.15364583,120.70393283,134.1,0.074,0.0,6.8999999999999995,8,1.38,14,24.15373983,120.70389333,121.3,0.019,0.0,5.4,8,1.08,0,24.15368799330909,120.70390268801769,24.153687906952328,120.7039049356949,198.31,261.55,262.92,19.95,20.90,19.72,91.61,95.95,90.54,2025-10-09T17:24:31.108434
24.1536855,120.703883,102.0,0.185,0.0,6.949999999999999,10,1.39,14,24.15364583,120.70393283,134.1,0.167,0.0,6.8999999999999995,8,1.38,14,24.15374,120.70389283,121.4,0.037,0.0,5.4,8,1.08,0,24.153688106412318,120.70390254229801,24.153688156799014,120.70390475155776,188.47,258.74,264.33,21.50,23.54,20.70,98.72,108.08,95.06,2025-10-09T17:24:31.310454
24.15368533,120.70388333,102.0,0.222,0.0,6.949999999999999,10,1.39,14,24.15364583,120.7039325,134.0,0.056,0.0,6.8999999999999995,8,1.38,14,24.15374,120.70389217,121.4,0.037,0.0,5.4,8,1.08,0,24.153688042853776,120.70390236287973,24.15368837329665,120.70390455361229,191.28,250.30,264.33,16.76,20.26,17.82,76.95,93.04,81.80,2025-10-09T17:24:31.513708
24.1536855,120.70388383,101.9,0.296,0.0,6.949999999999999,10,1.39,14,24.153646,120.70393283,133.9,0.259,0.0,6.8999999999999995,8,1.38,14,24.15374,120.70389183,121.4,0.093,0.0,5.4,8,1.08,0,24.153688163309095,120.70390256117392,24.15368857938063,120.70390438475542,209.56,254.52,260.11,22.39,16.90,20.54,102.79,77.59,94.32,2025-10-09T17:24:31.716466
24.15368567,120.703884,101.9,0.241,0.0,6.949999999999999,10,1.39,14,24.15364583,120.70393267,133.9,0.019,0.0,6.8999999999999995,8,1.38,14,24.15374,120.70389133,121.5,0.056,0.0,5.4,8,1.08,0,24.153688169970856,120.7039024254629,24.153688760777026,120.70390420735384,189.88,246.08,264.33,20.29,16.51,22.99,93.18,75.83,105.59,2025-10-09T17:24:31.918587
24.15368567,120.70388467,101.8,0.259,0.0,6.949999999999999,10,1.39,14,24.15364583,120.70393267,133.8,0.278,0.0,6.8999999999999995,8,1.38,14,24.15374017,120.703891,121.6,0.019,0.0,5.4,8,1.08,0,24.15368821951554,120.70390257978336,24.153688925079535,120.70390405423264,194.10,260.15,261.52,19.84,20.41,20.43,91.12,93.70,93.83,2025-10-09T17:24:32.120943
24.15368583,120.70388483,101.8,0.074,0.0,6.949999999999999,10,1.39,14,24.15364583,120.70393267,133.7,0.259,0.0,6.8999999999999995,8,1.38,14,24.15374017,120.703891,121.6,0.019,0.0,5.4,8,1.08,0,24.15368827933534,120.70390263960317,24.153689074359477,120.70390391451227,194.10,250.30,264.33,19.31,19.14,19.40,88.66,87.90,89.07,2025-10-09T17:24:32.324183
24.15368583,120.703885,101.7,0.093,0.0,6.949999999999999,10,1.39,14,24.15364617,120.70393233,133.7,0.185,0.0,6.8999999999999995,8,1.38,14,24.15374033,120.70389033,121.6,0.13,0.0,5.4,8,1.08,0,24.153688439759186,120.70390239410378,24.15368922043114,120.70390375525665,199.72,253.11,262.92,19.29,19.89,19.95,88.59,91.31,91.61,2025-10-09T17:24:32.526195
24.15368583,120.703885,101.7,0.093,0.0,6.949999999999999,10,1.39,14,24.15364617,120.70393233,133.6,0.13,0.0,6.8999999999999995,8,1.38,14,24.15374033,120.70389,121.7,0.0,0.0,5.4,8,1.08,0,24.153688439759186,120.70390229792882,24.15368934596252,120.7039035937296,195.50,247.49,262.92,20.80,21.72,22.49,95.52,99.73,103.25,2025-10-09T17:24:32.728752
24.15368567,120.70388533,101.7,0.352,0.0,6.949999999999999,10,1.39,14,24.15364617,120.70393217,133.5,0.037,0.0,6.8999999999999995,8,1.38,14,24.1537405,120.70388967,121.7,0.111,0.0,5.4,8,1.08,0,24.15368842948407,120.70390227158228,24.153689452060373,120.70390343811853,196.91,258.74,262.92,20.53,19.65,19.47,94.25,90.24,89.42,2025-10-09T17:24:32.931403
24.1536855,120.70388533,101.7,0.296,0.0,6.949999999999999,10,1.39,14,24.15364633,120.70393217,133.5,0.074,0.0,6.8999999999999995,8,1.38,14,24.1537405,120.70388933,121.7,0.148,0.0,5.4,8,1.08,0,24.153688419475444,120.70390217249292,24.15368953935821,120.70390328083488,196.91,250.30,264.33,16.43,23.09,20.56,75.43,106.04,94.43,2025-10-09T17:24:33.133458
24.1536855,120.7038855,101.7,0.185,0.0,6.949999999999999,10,1.39,14,24.15364633,120.70393217,133.4,0.074,0.0,6.8999999999999995,8,1.38,14,24.1537405,120.703889,121.8,0.167,0.0,5.4,8,1.08,0,24.153688419475444,120.70390213987648,24.153689611261342,120.70390312957099,206.75,255.93,262.92,20.45,21.18,22.11,93.91,97.25,101.54,2025-10-09T17:24:33.334719
24.15368517,120.7038855,101.8,0.167,0.0,6.949999999999999,10,1.39,14,24.15364633,120.70393217,133.4,0.259,0.0,6.8999999999999995,8,1.38,14,24.1537405,120.703889,121.8,0.167,0.0,5.4,8,1.08,0,24.153688296097098,120.70390213987648,24.153689656098056,120.70390298758552,205.35,243.27,265.74,20.33,18.80,20.86,93.37,86.32,95.78,2025-10-09T17:24:33.538286
24.15368533,120.703886,101.7,0.315,0.0,6.949999999999999,10,1.39,14,24.15364617,120.70393183,133.4,0.148,0.0,6.8999999999999995,8,1.38,14,24.1537405,120.70388783,121.9,0.13,0.0,5.4,8,1.08,0,24.15368830236699,120.70390187203581,24.15368968857914,120.70390282620191,205.35,257.33,265.74,22.91,20.40,17.15,105.19,93.65,78.73,2025-10-09T17:24:33.740802
24.15368533,120.703886,101.7,0.315,0.0,6.949999999999999,10,1.39,14,24.15364617,120.703932,133.4,0.037,0.0,6.8999999999999995,8,1.38,14,24.15374067,120.70388717,122.0,0.037,0.0,5.4,8,1.08,0,24.153688351911676,120.70390173658262,24.15368971405892,120.70390266152181,196.91,253.11,267.14,20.09,17.86,22.90,92.23,82.02,105.13,2025-10-09T17:24:33.942659
24.15368567,120.70388633,101.6,0.685,0.0,6.949999999999999,10,1.39,14,24.15364617,120.70393183,133.4,0.111,0.0,6.8999999999999995,8,1.38,14,24.1537405,120.70388633,122.0,0.056,0.0,5.4,8,1.08,0,24.15368842948407,120.70390155825517,24.153689737487248,120.70390248916455,180.03,246.08,268.55,22.41,21.34,17.93,102.90,97.99,82.33,2025-10-09T17:24:34.144344
24.15368567,120.70388667,101.6,0.148,0.0,6.949999999999999,10,1.39,14,24.15364633,120.70393167,133.4,0.167,0.0,6.8999999999999995,8,1.38,14,24.1537405,120.703886,122.2,0.074,0.0,5.4,8,1.08,0,24.153688483033978,120.70390153564736,24.15368975616989,120.70390232707273,205.35,262.96,264.33,19.14,19.84,17.49,87.89,91.10,80.31,2025-10-09T17:24:34.347875
24.153686,120.703887,101.4,0.167,0.0,6.949999999999999,10,1.39,14,24.15364633,120.70393133,133.4,0.148,0.0,6.8999999999999995,8,1.38,14,24.15374067,120.70388533,122.2,0.037,0.0,5.4,8,1.08,0,24.153688655957005,120.70390134996781,24.153689783615622,120.70390215747246,188.47,237.65,268.55,20.58,19.23,19.66,94.52,88.29,90.28,2025-10-09T17:24:34.548900
24.15368583,120.7038875,101.5,0.259,0.0,6.949999999999999,10,1.39,14,24.1536465,120.703931,133.4,0.093,0.0,6.8999999999999995,8,1.38,14,24.1537405,120.70388483,122.3,0.037,0.0,5.4,8,1.08,0,24.15368859975056,120.70390128073835,24.153689795584327,120.7039019932682,191.28,274.21,268.55,17.78,19.86,19.21,81.67,91.17,88.22,2025-10-09T17:24:34.751003
24.153686,120.70388783,101.4,0.222,0.0,6.949999999999999,10,1.39,14,24.1536465,120.703931,133.4,0.352,0.0,6.8999999999999995,8,1.38,14,24.1537405,120.70388433,122.4,0.056,0.0,5.4,8,1.08,0,24.153688663309097,120.70390125839701,24.153689806257777,120.70390183972964,188.47,254.52,268.55,18.12,18.78,21.16,83.21,86.22,97.16,2025-10-09T17:24:34.954315
24.153686,120.703888,101.4,0.074,0.0,6.949999999999999,10,1.39,14,24.1536465,120.7039305,133.4,0.148,0.0,6.8999999999999995,8,1.38,14,24.1537405,120.70388367,122.5,0.056,0.0,5.4,9,1.08,0,24.153690485338924,120.7039003544491,24.153690124684363,120.70390151700221,208.16,265.77,265.74,19.65,18.54,17.94,90.21,85.14,82.38,2025-10-09T17:24:35.356938
24.153686,120.70388817,101.4,0.074,0.0,6.949999999999999,10,1.39,14,24.1536465,120.70393017,133.4,0.056,0.0,6.8999999999999995,8,1.38,14,24.1537405,120.70388317,122.6,0.056,0.0,5.4,9,1.08,0,24.153690485338924,120.70390015103665,24.15369028710582,120.70390127462751,194.10,250.30,268.55,21.91,18.66,18.95,100.60,85.69,87.02,2025-10-09T17:24:35.559459
24.15368617,120.70388833,101.4,0.13,0.0,6.949999999999999,10,1.39,14,24.1536465,120.70392983,133.5,0.074,0.0,6.8999999999999995,8,1.38,14,24.15374067,120.703883,122.6,0.148,0.0,5.4,9,1.08,0,24.153690600442033,120.70390004518141,24.15369044499377,120.70390104209785,185.66,258.74,268.55,21.38,15.68,20.38,98.15,72.01,93.60,2025-10-09T17:24:35.760462
24.15368633,120.70388833,101.4,0.093,0.0,6.949999999999999,10,1.39,14,24.1536465,120.70392933,133.5,0.204,0.0,6.8999999999999995,8,1.38,14,24.15374067,120.7038825,122.7,0.13,0.0,5.4,9,1.08,0,24.153690658159203,120.70389972554756,24.15369059185452,120.70390079364033,187.06,260.15,268.55,22.91,19.32,20.07,105.19,88.69,92.14,2025-10-09T17:24:35.964266
24.15368633,120.70388867,101.3,0.241,0.0,6.949999999999999,10,1.39,14,24.1536465,120.70392917,133.5,0.093,0.0,6.8999999999999995,8,1.38,14,24.1537405,120.703882,122.9,0.111,0.0,5.4,9,1.08,0,24.153690604380586,120.70389963835648,24.153690839683858,120.70390044198422,184.25,254.52,268.55,17.42,19.80,19.43,79.98,90.93,89.24,2025-10-09T17:24:36.366762
24.15368667,120.703889,101.2,0.056,0.0,6.949999999999999,10,1.39,14,24.15364633,120.70392883,133.5,0.167,0.0,6.8999999999999995,8,1.38,14,24.15374067,120.70388217,122.9,0.037,0.0,8.299999999999999,9,1.66,0,24.153679580701763,120.70390361357644,24.153689769512702,120.7039006474484,192.69,254.52,269.96,22.41,18.93,20.98,102.91,86.93,96.34,2025-10-09T17:24:36.569039
24.153687,120.70388967,101.1,0.167,0.0,6.949999999999999,10,1.39,14,24.1536465,120.70392867,133.5,0.222,0.0,6.8999999999999995,8,1.38,14,24.1537405,120.703882,122.8,0.093,0.0,8.299999999999999,9,1.66,0,24.153679765611972,120.70390381816036,24.15368877337971,120.70390087245393,196.91,254.52,271.36,21.79,16.85,20.63,100.07,77.37,94.74,2025-10-09T17:24:36.771084
24.153687,120.70389,101.0,0.111,0.0,6.949999999999999,10,1.39,14,24.1536465,120.70392833,133.4,0.185,0.0,6.8999999999999995,8,1.38,14,24.15374067,120.70388167,122.8,0.0,0.0,6.8999999999999995,9,1.38,0,24.153683945991794,120.70390226755865,24.153688241883735,120.70390094171724,180.03,258.74,275.58,22.87,16.03,20.81,105.00,73.60,95.57,2025-10-09T17:24:36.973609
24.15368717,120.70389017,101.0,0.037,0.0,6.949999999999999,10,1.39,14,24.1536465,120.70392817,133.4,0.148,0.0,6.8999999999999995,8,1.38,14,24.15374083,120.70388167,122.8,0.037,0.0,6.8999999999999995,9,1.38,0,24.153684051216494,120.70390227856471,24.153687758449895,120.70390101296687,83.00,331.86,295.27,22.21,22.74,18.89,101.99,104.41,86.72,2025-10-09T17:24:37.175851
24.15368733,120.70389033,100.9,0.833,0.0,6.949999999999999,10,1.39,14,24.1536465,120.70392817,133.4,0.148,0.0,6.8999999999999995,8,1.38,14,24.15374083,120.70388167,122.8,0.074,0.0,6.8999999999999995,9,1.38,0,24.153684116997873,120.70390234434609,24.153687316054018,120.7039010916416,22.53,351.55,307.92,19.06,17.94,23.49,87.52,82.38,107.87,2025-10-09T17:24:37.377877
24.15368717,120.7038905,100.9,0.13,0.0,6.949999999999999,10,1.39,14,24.1536465,120.703928,133.4,0.148,0.0,6.8999999999999995,8,1.38,14,24.153741,120.7038815,122.8,0.074,0.0,6.8999999999999995,9,1.38,0,24.153684088756727,120.70390231413153,24.1536869017104,120.70390116551299,345.97,1.39,319.18,23.60,19.09,20.23,108.35,87.67,92.91,2025-10-09T17:24:37.580393
24.15368733,120.70389067,100.9,0.093,0.0,6.949999999999999,10,1.39,14,24.1536465,120.703928,133.3,0.111,0.0,6.8999999999999995,8,1.38,14,24.153741,120.70388133,122.8,0.056,0.0,6.8999999999999995,9,1.38,0,24.15368415453811,120.70390234648401,24.153686524840957,120.70390124212014,345.97,22.48,329.02,17.50,20.39,20.97,80.36,93.63,96.31,2025-10-09T17:24:37.782947
24.15368733,120.703891,100.9,0.444,0.0,6.949999999999999,10,1.39,14,24.1536465,120.703928,133.3,0.074,0.0,6.8999999999999995,8,1.38,14,24.153741,120.7038815,122.9,0.093,0.0,8.299999999999999,9,1.66,0,24.15367999311053,120.70390405846591,24.15368576232057,120.70390148202897,333.31,15.45,340.27,22.14,23.00,16.77,101.65,105.62,77.02,2025-10-09T17:24:37.983951
24.1536875,120.70389083,100.8,0.222,0.0,6.949999999999999,10,1.39,14,24.15364667,120.703928,133.2,0.259,0.0,6.8999999999999995,8,1.38,14,24.15374117,120.7038815,122.9,0.148,0.0,8.299999999999999,8,1.66,0,24.153679032310816,120.70390440020113,24.153684945366585,120.70390174687107,337.53,11.23,358.56,20.51,19.20,23.21,94.20,88.18,106.59,2025-10-09T17:24:38.186257
24.15368767,120.703891,100.8,0.556,0.0,6.949999999999999,10,1.39,14,24.15364667,120.70392783,133.2,0.111,0.0,6.8999999999999995,8,1.38,14,24.15374117,120.7038815,122.9,0.148,0.0,8.299999999999999,8,1.66,0,24.153679108710442,120.70390440820879,24.153684186899024,120.70390200146913,355.81,8.42,37.93,21.83,20.40,18.98,100.23,93.65,87.15,2025-10-09T17:24:38.389178
24.153688,120.70389133,100.9,0.648,0.0,6.949999999999999,10,1.39,14,24.15364733,120.7039275,133.2,0.463,0.0,6.8999999999999995,8,1.38,14,24.15374167,120.703882,122.9,0.352,0.0,8.299999999999999,8,1.66,0,24.153679596679712,120.70390449789554,24.153683301068977,120.7039022792368,11.28,351.55,95.58,22.07,20.90,20.64,101.34,95.97,94.78,2025-10-09T17:24:38.791283
24.15368833,120.7038915,100.9,0.574,0.0,6.949999999999999,10,1.39,14,24.15364733,120.7039275,133.2,0.463,0.0,6.8999999999999995,8,1.38,14,24.153742,120.703882,122.8,0.407,0.0,8.299999999999999,8,1.66,0,24.153679793918872,120.70390457429517,24.153682701549066,120.70390254975037,53.47,324.83,168.71,23.30,20.15,18.97,106.98,92.54,87.13,2025-10-09T17:24:38.994640
24.1536885,120.703892,100.9,0.815,0.0,6.949999999999999,10,1.39,14,24.15364817,120.70392717,133.3,0.759,0.0,6.8999999999999995,8,1.38,14,24.15374233,120.70388267,122.8,0.537,0.0,8.299999999999999,8,1.66,0,24.15368025718919,120.70390476558995,24.15368220690201,120.7039028247037,77.38,312.18,267.14,21.46,21.02,21.57,98.54,96.50,99.07,2025-10-09T17:24:39.196899
24.153689,120.70389217,100.9,0.926,0.0,6.949999999999999,10,1.39,14,24.15364867,120.7039275,133.3,0.759,0.0,6.8999999999999995,8,1.38,14,24.15374267,120.7038825,122.8,0.63,0.0,8.299999999999999,8,1.66,0,24.153680733463613,120.703904949542,24.153681810655716,120.70390310238076,18.31,341.71,43.55,19.14,17.35,20.63,87.91,79.66,94.74,2025-10-09T17:24:39.399415
24.15368933,120.70389267,100.9,1.148,0.0,6.949999999999999,10,1.39,14,24.15364917,120.70392783,133.3,0.963,0.0,6.8999999999999995,8,1.38,14,24.153743,120.703883,122.8,0.796,0.0,8.299999999999999,8,1.66,0,24.153681131855567,120.70390538115005,24.153681498151137,120.70390340999667,324.88,8.42,229.18,14.47,21.49,20.73,66.43,98.70,95.20,2025-10-09T17:24:39.601789
24.15368983,120.7038925,101.0,0.907,0.0,6.949999999999999,10,1.39,14,24.1536495,120.70392817,133.2,0.889,0.0,6.8999999999999995,8,1.38,14,24.15374333,120.70388333,122.8,0.852,0.0,8.299999999999999,8,1.66,0,24.153681538255192,120.70390549046832,24.153681263336615,120.70390370792414,282.69,2.80,111.06,20.56,21.49,20.32,94.41,98.68,93.31,2025-10-09T17:24:39.803881
24.15369017,120.7038925,101.0,1.037,0.0,6.949999999999999,10,1.39,14,24.15365,120.70392817,133.3,1.259,0.0,6.8999999999999995,8,1.38,14,24.15374367,120.7038835,122.8,0.852,0.0,8.299999999999999,9,1.66,0,24.15368306595679,120.70390511502907,24.153681220974622,120.70390394516687,255.97,36.55,43.56,13.65,18.54,20.86,62.70,85.13,95.78,2025-10-09T17:24:40.006523
24.15369083,120.70389267,101.0,1.315,0.0,6.949999999999999,10,1.39,14,24.15365017,120.703928,133.3,1.148,0.0,6.8999999999999995,8,1.38,14,24.15374417,120.70388383,122.7,0.926,0.0,8.299999999999999,9,1.66,0,24.153683506208935,120.70390517693994,24.153681240992285,120.7039041711294,142.06,85.76,26.68,17.61,16.86,20.87,80.86,77.43,95.81,2025-10-09T17:24:40.209102
24.15369083,120.7038925,101.0,0.945,0.0,6.949999999999999,10,1.39,14,24.15365083,120.70392783,133.4,1.241,0.0,6.8999999999999995,8,1.38,14,24.15374483,120.70388467,122.7,1.111,0.0,8.299999999999999,9,1.66,0,24.153683874996435,120.70390517236238,24.15368131081164,120.70390437844907,299.56,241.85,53.40,20.25,18.62,19.92,92.97,85.51,91.45,2025-10-09T17:24:40.411240
24.15369183,120.70389283,101.2,1.833,0.0,6.949999999999999,10,1.39,14,24.15365133,120.70392783,133.5,1.482,0.0,6.8999999999999995,8,1.38,14,24.15374533,120.70388483,122.7,1.241,78.27,8.299999999999999,9,1.66,0,24.153684595611967,120.70390534417417,24.153681464660828,120.7039045886171,233.47,192.63,215.12,21.38,24.41,21.70,98.17,112.10,99.63,2025-10-09T17:24:40.613171
24.15369267,120.7038935,101.3,1.889,322.64,6.949999999999999,10,1.39,14,24.1536525,120.703928,133.7,2.111,15.65,6.8999999999999995,8,1.38,14,24.153746,120.703885,122.8,1.408,46.9,8.299999999999999,9,1.66,0,24.153685538113407,120.70390573478973,24.153681719215278,120.70390482665917,310.81,184.18,126.54,20.96,20.57,20.64,96.26,94.45,94.77,2025-10-09T17:24:40.816103
24.15369317,120.70389383,101.2,1.519,322.64,6.949999999999999,10,1.39,14,24.15365333,120.70392817,133.7,1.926,18.93,6.8999999999999995,8,1.38,14,24.15374733,120.70388583,122.7,1.815,32.87,8.299999999999999,9,1.66,0,24.15368630439946,120.70390608348454,24.15368204970953,120.70390508407621,234.88,118.08,63.26,18.95,18.11,20.14,87.03,83.17,92.47,2025-10-09T17:24:41.018856
24.15369433,120.7038945,101.4,2.704,6.58,6.949999999999999,10,1.39,14,24.15365433,120.70392917,133.7,2.445,27.37,6.8999999999999995,8,1.38,14,24.15374833,120.7038865,122.7,2.056,28.57,6.8999999999999995,9,1.38,0,24.153691532884746,120.70390549339902,24.153682982938594,120.70390527182921,105.50,210.89,314.98,18.83,19.96,21.85,86.48,91.66,100.31,2025-10-09T17:24:41.221020
24.15369633,120.703895,101.4,3.204,8.38,6.949999999999999,10,1.39,14,24.153656,120.70393033,133.7,3.204,26.17,6.8999999999999995,8,1.38,14,24.15375033,120.703887,122.7,2.889,25.82,6.8999999999999995,9,1.38,0,24.15369341143106,120.70390623630641,24.1536840638212,120.7039055293605,78.78,217.92,168.73,21.84,20.12,23.32,100.30,92.40,107.08,2025-10-09T17:24:41.422752
24.15369883,120.70389633,101.4,4.649,5.07,6.949999999999999,10,1.39,14,24.15365933,120.7039305,133.5,4.945,18.53,6.8999999999999995,8,1.38,14,24.15375283,120.703887,122.8,3.63,22.51,6.8999999999999995,9,1.38,0,24.153696216905487,120.70390684568117,24.15368538160421,120.70390583787757,116.75,195.42,254.51,17.54,21.74,21.19,80.54,99.83,97.29,2025-10-09T17:24:41.625091
24.15370267,120.70389583,101.3,6.556,359.75,6.949999999999999,9,1.39,14,24.15365933,120.7039305,133.5,4.945,18.53,6.8999999999999995,8,1.38,14,24.153756,120.70388717,122.9,4.723,20.45,6.8999999999999995,9,1.38,0,24.15369839221824,120.70390694649971,24.15368684635231,120.7039061334367,213.78,154.64,202.48,18.23,25.20,24.08,83.70,115.72,110.57,2025-10-09T17:24:41.827301
24.15370267,120.70389583,101.3,6.556,359.75,6.949999999999999,10,1.39,14,24.1536625,120.70393117,133.4,5.797,15.6,6.8999999999999995,8,1.38,14,24.15376,120.70388717,122.9,5.852,16.9,6.8999999999999995,9,1.38,0,24.153700545664574,120.7039069242424,24.15368844290195,120.7039064027916,305.19,132.14,33.73,17.89,22.13,21.96,82.14,101.60,100.84,2025-10-09T17:24:42.029397
24.15370733,120.70389567,101.3,8.315,0.39,6.949999999999999,10,1.39,14,24.15366733,120.70393133,133.5,7.89,12.7,6.8999999999999995,8,1.38,14,24.15376517,120.70388817,123.0,7.334,13.91,6.8999999999999995,9,1.38,0,24.15370538085232,120.70390713817253,24.153690450136853,120.70390668085322,260.19,222.15,282.63,21.06,19.75,19.69,96.69,90.67,90.40,2025-10-09T17:24:42.231754
24.15371217,120.7038965,101.3,9.223,3.39,6.949999999999999,10,1.39,14,24.15367217,120.70393217,133.4,8.89,11.78,6.8999999999999995,8,1.38,14,24.15377067,120.70388783,123.0,8.575,10.0,6.8999999999999995,9,1.38,0,24.153710366596744,120.70390771348782,24.153692852513462,120.703907005938,206.75,206.69,347.32,34.77,36.75,9.34,159.64,168.74,42.88,2025-10-09T17:24:42.433291
24.15371767,120.70389567,101.5,10.556,0.21,6.949999999999999,10,1.39,14,24.15367817,120.7039325,133.4,10.297,10.05,6.8999999999999995,7,1.38,14,24.153776,120.70388767,123.0,9.723,7.59,6.8999999999999995,9,1.38,0,24.15371696495408,120.70390682848992,24.153695791219647,120.70390721854221,357.22,341.69,9.82,19.22,19.41,19.13,88.24,89.11,87.85,2025-10-09T17:24:42.635643
24.15372967,120.7038965,101.3,12.186,358.8,6.949999999999999,10,1.39,14,24.15368417,120.70393233,133.5,11.093,6.95,6.8999999999999995,7,1.38,14,24.15378217,120.7038875,123.2,10.76,4.7,6.8999999999999995,9,1.38,0,24.153725532288465,120.7039070799649,24.15369943904632,120.70390745456186,327.69,44.97,49.20,20.14,18.59,20.25,92.46,85.38,92.99,2025-10-09T17:24:42.837802
24.15373583,120.70389717,101.3,12.316,359.14,6.949999999999999,10,1.39,14,24.15369667,120.70393333,133.5,12.26,5.05,6.8999999999999995,7,1.38,14,24.153788,120.70388833,123.0,11.464,3.65,6.8999999999999995,9,1.38,0,24.15373385018678,120.70390790239367,24.153703716762365,120.70390777192547,39.41,282.63,102.64,18.50,19.89,19.13,84.95,91.35,87.86,2025-10-09T17:24:43.039388
24.15373583,120.70389717,101.2,12.316,359.14,6.949999999999999,10,1.39,14,24.1537035,120.70393383,133.5,12.945,3.75,6.8999999999999995,7,1.38,14,24.1537945,120.7038915,122.8,12.371,5.8,6.8999999999999995,9,1.38,0,24.153737726807456,120.70390879608907,24.153708114081578,120.70390816105413,296.75,282.62,260.14,18.26,20.05,21.65,83.86,92.06,99.39,2025-10-09T17:24:43.241948
24.15374233,120.70389733,101.3,13.223,359.64,6.949999999999999,10,1.39,14,24.15371017,120.70393433,133.5,13.001,4.03,6.8999999999999995,8,1.38,14,24.153801,120.703892,122.8,12.797,5.92,6.8999999999999995,9,1.38,0,24.153743449582183,120.70390977053813,24.15371280628076,120.70390862905936,350.19,316.37,54.83,24.62,18.01,20.26,113.06,82.69,93.01,2025-10-09T17:24:43.445012
24.15374883,120.703899,101.2,13.26,2.35,6.949999999999999,10,1.39,14,24.1537175,120.703935,133.5,13.834,4.23,6.8999999999999995,8,1.38,14,24.15380733,120.70389317,122.8,13.279,6.44,6.8999999999999995,9,1.38,0,24.153750217516386,120.7039109620842,24.153717881238894,120.70390919652091,130.81,255.91,271.39,20.45,20.88,17.34,93.89,95.90,79.64,2025-10-09T17:24:43.647182
24.153756,120.703901,101.1,14.149,4.76,6.949999999999999,9,1.39,14,24.1537175,120.703935,133.4,13.834,4.23,6.8999999999999995,8,1.38,14,24.15381417,120.70389417,122.9,13.946,6.87,6.8999999999999995,9,1.38,0,24.15375464296784,120.70391227792545,24.15372306309987,120.7039098628133,330.50,113.88,95.61,19.81,21.41,19.77,90.98,98.30,90.77,2025-10-09T17:24:43.849334
24.15376383,120.70390167,101.1,15.353,5.26,6.949999999999999,9,1.39,14,24.15372517,120.703937,133.4,14.705,6.35,6.8999999999999995,8,1.38,14,24.15382183,120.70389583,123.0,14.686,7.59,6.8999999999999995,9,1.38,0,24.153762374151153,120.70391367358688,24.153728685004204,120.70391063814272,250.35,97.01,295.30,18.31,18.18,19.71,84.08,83.50,90.50,2025-10-09T17:24:44.051752
24.15377183,120.70390483,100.9,15.964,8.74,6.949999999999999,9,1.39,14,24.15373317,120.703938,133.4,15.501,6.52,6.8999999999999995,8,1.38,14,24.1538295,120.70389717,123.0,15.131,7.9,6.8999999999999995,9,1.38,0,24.1537702994729,120.70391560705309,24.153734725831814,120.70391157062505,305.19,8.42,163.11,19.84,20.21,20.45,91.11,92.82,93.91,2025-10-09T17:24:44.253674
24.15378033,120.7039075,100.8,16.742,9.79,6.949999999999999,9,1.39,14,24.1537515,120.70394217,133.3,17.705,8.45,6.8999999999999995,8,1.38,14,24.15383883,120.703901,123.0,16.316,9.26,6.8999999999999995,9,1.38,0,24.15378269481147,120.70391910530284,24.153741630821933,120.7039128297201,25.35,234.83,11.23,18.72,20.72,17.77,85.95,95.16,81.59,2025-10-09T17:24:44.455847
24.153789,120.70390883,100.9,17.705,9.32,6.949999999999999,9,1.39,14,24.15376033,120.70394467,133.1,17.89,10.31,6.8999999999999995,8,1.38,14,24.153848,120.7039035,122.6,17.131,10.19,6.8999999999999995,9,1.38,0,24.153791538306407,120.70392114135183,24.153748963657915,120.70391422624309,308.00,91.39,223.57,17.03,22.01,21.45,78.22,101.04,98.51,2025-10-09T17:24:44.658137
24.153798,120.70391183,100.7,18.057,10.54,6.949999999999999,9,1.39,14,24.153769,120.7039465,133.0,17.909,10.91,6.8999999999999995,8,1.38,14,24.153857,120.70390617,122.5,17.65,10.98,5.4,9,1.08,0,24.153807501191753,120.70392143912568,24.153757828361123,120.70391564108144,108.31,39.36,78.73,16.98,19.06,21.91,77.97,87.51,100.61,2025-10-09T17:24:44.860708
24.153807,120.70391433,100.7,18.15,11.09,6.949999999999999,9,1.39,14,24.153769,120.7039465,132.9,17.909,10.91,6.8999999999999995,8,1.38,14,24.153866,120.70390783,122.4,18.168,11.23,5.4,9,1.08,0,24.153813531878402,120.70392284282588,24.153766624949867,120.70391709091491,136.44,8.43,299.51,22.29,19.97,21.09,102.37,91.71,96.85,2025-10-09T17:24:45.062978
24.15381667,120.7039165,100.6,19.094,10.82,6.949999999999999,9,1.39,14,24.15377883,120.70394917,132.9,19.039,11.66,6.8999999999999995,8,1.38,14,24.15387517,120.7039115,122.5,18.65,12.75,5.4,9,1.08,0,24.153823093064677,120.7039256625923,24.153775745731583,120.70391874143637,219.41,284.05,158.88,19.60,18.34,21.66,90.02,84.21,99.45,2025-10-09T17:24:45.265042
24.15382617,120.7039195,100.6,19.057,11.12,6.949999999999999,9,1.39,14,24.15378867,120.70395233,132.8,19.483,12.29,6.8999999999999995,8,1.38,14,24.1538845,120.703913,122.4,18.964,12.69,5.4,9,1.08,0,24.153832650294223,120.70392823057551,24.153785160742608,120.7039205476628,296.75,310.77,16.85,21.31,20.94,18.72,97.84,96.13,85.96,2025-10-09T17:24:45.467249
24.1538355,120.70392317,100.5,19.057,12.11,6.949999999999999,8,1.39,14,24.15379867,120.70395417,132.7,19.557,11.42,6.8999999999999995,7,1.38,14,24.15389367,120.7039155,122.5,19.076,12.89,5.4,9,1.08,0,24.153843300380966,120.70393055956055,24.153794965036784,120.70392247351016,264.41,296.71,251.69,20.90,18.92,18.55,95.96,86.88,85.20,2025-10-09T17:24:45.669995
24.15385433,120.70393067,100.2,19.168,13.84,6.949999999999999,8,1.39,14,24.15380817,120.70395633,132.8,19.483,12.24,6.8999999999999995,7,1.38,14,24.15391217,120.70392033,122.6,19.353,13.74,5.4,9,1.08,0,24.153859014671298,120.703935437763,24.153810037038234,120.70392567836312,216.60,312.18,122.32,17.40,13.97,21.31,79.89,64.17,97.84,2025-10-09T17:24:46.073853
24.15386283,120.703937,99.9,19.057,18.37,6.949999999999999,8,1.39,14,24.15381817,120.703959,132.7,19.761,13.05,6.8999999999999995,7,1.38,14,24.15391217,120.70392033,122.7,19.353,13.74,5.4,9,1.08,0,24.153865124969663,120.70393844996526,24.153820623585556,120.70392819837852,195.50,350.15,348.72,19.88,19.58,17.68,91.28,89.89,81.20,2025-10-09T17:24:46.277269
24.15387217,120.70394067,99.7,19.742,20.23,6.949999999999999,8,1.39,14,24.153828,120.7039605,132.7,19.816,12.2,6.8999999999999995,7,1.38,14,24.15392167,120.70392267,122.7,19.465,13.96,5.4,9,1.08,0,24.153874676819697,120.70394097175213,24.153831261843816,120.70393077123822,120.97,1.40,267.17,19.43,20.88,16.96,89.21,95.86,77.88,2025-10-09T17:24:46.479782
24.15388167,120.7039425,99.7,19.372,18.81,6.949999999999999,8,1.39,14,24.15384717,120.703966,132.6,19.724,13.94,6.8999999999999995,9,1.38,14,24.153931,120.70392517,122.8,19.502,14.12,6.8999999999999995,9,1.38,0,24.153878954651542,120.70394803048342,24.15384107871499,120.7039337871359,75.97,40.77,189.82,22.70,18.40,19.28,104.22,84.51,88.55,2025-10-09T17:24:46.682209
24.15390167,120.7039495,99.9,20.872,17.7,5.6499999999999995,8,1.13,14,24.15385717,120.7039685,132.7,20.224,14.47,6.8999999999999995,8,1.38,14,24.15395017,120.70393033,122.9,19.946,14.49,5.4,9,1.08,0,24.153902537758576,120.70394956352536,24.153858833655317,120.70393827759725,83.00,23.90,104.04,18.90,23.55,21.37,86.77,108.15,98.14,2025-10-09T17:24:47.084620
24.15391167,120.70395233,100.0,20.094,16.72,5.6499999999999995,9,1.13,14,24.15386717,120.7039715,132.7,20.483,15.5,6.8999999999999995,8,1.38,14,24.15396,120.70393317,123.0,20.168,14.86,5.4,9,1.08,0,24.15391246695112,120.70395244211265,24.15387096822122,120.70394153139925,143.47,317.80,5.60,15.92,18.44,20.25,73.12,84.69,93.01,2025-10-09T17:24:47.286235
24.15392133,120.703956,100.0,19.928,16.89,5.6499999999999995,9,1.13,14,24.15388767,120.7039775,132.7,21.261,15.88,6.8999999999999995,8,1.38,14,24.15397,120.70393617,123.0,20.557,15.21,5.4,9,1.08,0,24.153925256240832,120.70395658085833,24.15388334179259,120.70394495454046,241.91,257.33,264.35,18.76,21.22,19.42,86.17,97.44,89.19,2025-10-09T17:24:47.489934
24.15393067,120.70395917,99.9,19.539,17.22,5.6499999999999995,9,1.13,14,24.153898,120.703981,132.8,21.428,16.42,6.8999999999999995,8,1.38,14,24.15398017,120.70394,123.1,20.835,15.94,5.4,9,1.08,0,24.15393510124053,120.70396002436635,24.153895586391688,120.70394843585422,254.56,224.99,219.35,21.16,16.28,19.44,97.17,74.73,89.26,2025-10-09T17:24:47.692071
24.15395033,120.703966,99.8,20.02,18.35,5.6499999999999995,9,1.13,14,24.15390833,120.70398433,132.8,21.483,16.48,6.8999999999999995,8,1.38,14,24.15400033,120.703946,123.3,21.205,16.57,5.4,9,1.08,0,24.1539522853328,120.7039656463804,24.153915169040715,120.7039539502586,160.35,220.77,182.79,19.59,21.44,18.30,89.96,98.43,84.02,2025-10-09T17:24:48.093588
24.1539605,120.70396933,99.9,20.316,18.13,5.6499999999999995,9,1.13,14,24.15392933,120.70399133,132.7,21.798,16.17,6.8999999999999995,8,1.38,14,24.15401083,120.70394917,123.4,21.428,16.75,5.4,9,1.08,0,24.153965579078076,120.70396996035365,24.153928106448717,120.7039578768931,33.78,298.11,150.44,20.07,21.17,20.43,92.18,97.21,93.82,2025-10-09T17:24:48.296685
24.1539705,120.70397383,99.7,21.168,19.86,5.6499999999999995,9,1.13,14,24.15392933,120.70399133,132.7,21.798,16.17,6.8999999999999995,8,1.38,14,24.154021,120.7039525,123.5,21.483,16.9,5.4,9,1.08,0,24.153972824978865,120.70397287900808,24.153940481092153,120.70396171461152,267.22,11.23,116.70,18.20,20.73,22.79,83.58,95.21,104.65,2025-10-09T17:24:48.499200
24.15398067,120.70397833,100.0,21.391,20.54,5.6499999999999995,9,1.13,14,24.1539505,120.70399967,132.7,22.317,17.8,6.8999999999999995,8,1.38,14,24.15403117,120.70395567,123.7,21.724,17.63,4.85,9,0.97,0,24.153988858075195,120.70397670631004,24.153953577942758,120.7039656666342,140.66,75.92,89.98,18.68,18.39,19.37,85.76,84.45,88.95,2025-10-09T17:24:48.701051
24.15399167,120.703983,100.0,22.965,21.99,5.6499999999999995,9,1.13,14,24.15396133,120.70400283,132.8,22.65,17.29,6.8999999999999995,8,1.38,14,24.1540425,120.70396383,123.6,22.687,20.33,4.85,9,0.97,0,24.153999918716412,120.70398209328961,24.153966580573783,120.70396985990219,94.25,95.61,46.38,20.54,19.49,18.58,94.32,89.50,85.32,2025-10-09T17:24:48.903151
24.15400267,120.70398717,100.2,23.557,21.94,4.6000000000000005,9,0.92,14,24.15397233,120.70400667,132.9,23.391,17.84,6.8999999999999995,8,1.38,14,24.15405367,120.7039685,123.6,23.131,21.26,4.85,9,0.97,0,24.154009517026275,120.70398648235718,24.153979568762082,120.703974246574,53.47,123.73,354.35,20.51,19.32,17.87,94.18,88.72,82.06,2025-10-09T17:24:49.105702
24.15401333,120.703992,100.3,23.354,21.91,4.6000000000000005,9,0.92,14,24.1539835,120.70401117,132.9,23.872,18.57,6.8999999999999995,8,1.38,14,24.154065,120.70397283,123.7,23.594,21.69,4.85,9,0.97,0,24.154020463878847,120.70399110925312,24.153992439701693,120.70397872565617,1.44,142.01,306.54,19.18,20.48,19.46,88.05,94.04,89.34,2025-10-09T17:24:49.307775
24.1540245,120.7039965,100.5,23.52,21.15,5.6499999999999995,9,1.13,14,24.1539835,120.70401117,132.9,23.872,18.57,6.8999999999999995,8,1.38,14,24.15407583,120.70397783,123.9,23.65,22.21,4.85,9,0.97,0,24.15403010690428,120.70399439684346,24.154004825953265,120.70398301167457,35.19,213.73,251.70,19.66,20.08,17.73,90.26,92.18,81.41,2025-10-09T17:24:49.510176
24.15403533,120.70400133,100.5,23.576,20.84,5.6499999999999995,9,1.13,14,24.15400683,120.7040195,132.9,24.872,18.38,6.8999999999999995,8,1.38,14,24.15408683,120.70398233,124.1,23.743,22.29,4.85,9,0.97,0,24.154044276080764,120.70400004130565,24.154017571443696,120.70398754392139,358.63,239.04,198.26,21.56,19.05,21.52,99.00,87.49,98.80,2025-10-09T17:24:49.712263
24.15404583,120.704006,100.5,23.465,21.02,5.6499999999999995,9,1.13,14,24.1540185,120.704024,133.1,24.835,18.61,6.8999999999999995,8,1.38,14,24.15409817,120.703987,124.1,23.854,22.22,4.85,9,0.97,0,24.15405535162704,120.7040046666307,24.154030266199868,120.70399216344538,288.31,286.85,174.35,16.87,19.77,21.03,77.45,90.78,96.55,2025-10-09T17:24:49.914529
24.1540565,120.70401067,100.8,23.557,21.6,4.6000000000000005,9,0.92,14,24.15403067,120.70402983,133.1,25.761,19.71,7.1,7,1.42,14,24.154111,120.70399183,124.3,24.706,21.95,4.85,9,0.97,0,24.15406615690369,120.70400933764607,24.154043034970712,120.70399694959396,236.28,210.92,157.48,17.41,20.50,20.18,79.96,94.12,92.66,2025-10-09T17:24:50.116589
24.15406833,120.70401517,101.0,24.613,21.14,4.4,9,0.88,14,24.15404333,120.704035,133.0,26.484,19.98,5.75,8,1.15,14,24.15412383,120.7039965,124.5,25.372,21.69,4.85,9,0.97,0,24.154074279699756,120.70401628455704,24.154055605612438,120.70400224718452,302.38,310.76,140.60,18.98,19.16,19.59,87.17,87.97,89.94,2025-10-09T17:24:50.318612
24.15408,120.70402067,101.1,25.243,22.43,4.4,9,0.88,14,24.154056,120.7040405,133.0,26.928,20.14,5.75,8,1.15,14,24.1541365,120.70400167,124.6,25.909,21.66,4.85,9,0.97,0,24.154086452662423,120.70402170862111,24.15406821395737,120.70400763200138,139.25,271.38,133.57,20.17,20.08,19.64,92.60,92.19,90.20,2025-10-09T17:24:50.519763
24.15409467,120.70402617,101.0,27.354,22.07,4.4,9,0.88,14,24.15406967,120.704046,133.0,27.873,19.71,5.75,8,1.15,14,24.15414983,120.704007,124.8,26.613,21.61,4.85,9,0.97,0,24.15410054146273,120.70402716950258,24.15408108955343,120.70401310458071,338.94,16.85,88.58,19.81,18.66,22.01,90.96,85.68,101.07,2025-10-09T17:24:50.722774
24.15410833,120.704031,101.2,27.873,21.35,5.05,9,1.01,14,24.15408317,120.704052,132.9,28.391,19.96,5.75,8,1.15,14,24.1541635,120.70401217,124.9,27.317,21.42,4.85,9,0.97,0,24.15411495298281,120.70403258696304,24.15409417123704,120.7040185875776,264.41,133.57,60.45,19.95,18.35,21.71,91.60,84.26,99.69,2025-10-09T17:24:50.925326
24.154122,120.704036,101.3,28.743,20.85,4.4,9,0.88,14,24.1540965,120.7040575,132.8,28.169,19.78,5.4,8,1.08,14,24.154177,120.70401717,125.0,27.743,21.0,4.85,9,0.97,0,24.154126599113752,120.70403823682305,24.154107336595157,120.7040242878117,8.47,293.89,35.13,16.41,19.13,19.71,75.36,87.84,90.48,2025-10-09T17:24:51.127355
24.154135,120.70404167,101.6,29.002,21.57,4.4,9,0.88,14,24.1540965,120.7040575,132.7,28.169,19.78,5.75,8,1.15,14,24.15419133,120.70402317,125.0,28.465,20.82,4.85,10,0.97,0,24.15413880022743,120.70404126949875,24.15412042570388,120.70402969533686,265.81,185.60,358.57,21.79,17.69,19.68,100.05,81.23,90.38,2025-10-09T17:24:51.328361
24.154149,120.704047,101.6,30.021,20.39,4.4,9,0.88,14,24.154111,120.70406383,132.5,29.539,19.55,5.75,8,1.15,14,24.15420567,120.704029,125.0,29.021,20.7,4.85,10,0.97,0,24.154153018016,120.70404699020143,24.154133758260304,120.70403522022707,29.56,272.80,359.98,19.98,20.27,22.57,91.75,93.06,103.63,2025-10-09T17:24:51.532501
24.1541605,120.70405417,102.1,28.41,22.61,4.3,10,0.86,14,24.154125,120.70407033,132.3,29.558,20.01,5.75,8,1.15,14,24.15422033,120.70403417,125.1,29.576,20.12,4.85,10,0.97,0,24.154165688088924,120.70405351884271,24.15414718562586,120.70404096928611,326.28,89.98,63.26,21.01,20.39,17.28,96.48,93.65,79.34,2025-10-09T17:24:51.733489
24.15417117,120.70406133,102.3,27.095,25.15,4.95,10,0.99,14,24.15414,120.704077,132.1,30.521,20.08,5.75,8,1.15,14,24.15423533,120.70404033,125.1,30.317,20.14,4.85,10,0.97,0,24.1541795220695,120.70406017373705,24.154160628104464,120.70404682457797,156.13,334.67,94.19,18.68,18.82,20.19,85.76,86.42,92.72,2025-10-09T17:24:51.935447
24.15418467,120.70406817,102.4,28.243,25.44,4.95,10,0.99,14,24.15416933,120.704091,132.1,31.354,20.89,5.75,8,1.15,14,24.15425067,120.70404633,125.0,31.002,20.07,4.85,10,0.97,0,24.154198086289274,120.70406885225638,24.15417476693316,120.70405311316833,345.97,199.67,113.88,16.75,19.08,21.03,76.92,87.62,96.57,2025-10-09T17:24:52.139255
24.15419783,120.7040735,102.4,27.984,24.47,4.95,10,0.99,14,24.154184,120.70409833,131.5,31.206,22.5,5.699999999999999,10,1.14,14,24.15426567,120.7040525,125.1,31.447,20.31,4.85,10,0.97,0,24.15421098582268,120.7040759750033,24.154189016393236,120.70405964906008,43.63,194.05,144.82,19.28,20.81,22.79,88.52,95.55,104.66,2025-10-09T17:24:52.341836
24.154214,120.70407983,102.5,30.447,23.03,4.95,10,0.99,14,24.15419833,120.704106,131.5,30.762,23.04,5.699999999999999,10,1.14,14,24.1542805,120.70405867,125.1,31.614,20.25,4.85,10,0.97,0,24.154226222651616,120.70408269054133,24.15420346804918,120.7040663065644,199.72,154.68,150.44,18.28,18.53,22.51,83.95,85.09,103.36,2025-10-09T17:24:52.544351
24.15423017,120.704086,102.6,32.206,21.57,4.95,10,0.99,14,24.15421083,120.70411417,130.8,29.632,25.3,5.1,10,1.02,14,24.15429533,120.70406483,125.2,31.891,20.43,4.85,10,0.97,0,24.154238666693917,120.7040913098622,24.1542179423977,120.7040733898987,46.44,14.06,154.66,18.77,20.40,18.78,86.21,93.68,86.23,2025-10-09T17:24:52.746865
24.1542455,120.704092,102.6,32.595,21.43,4.95,10,0.99,14,24.1542235,120.7041225,130.5,29.354,28.03,5.699999999999999,10,1.14,14,24.1543105,120.70407133,125.4,32.206,20.54,4.85,10,0.97,0,24.154255317429,120.70409636704314,24.154232695803383,120.70408028646541,135.03,330.46,156.06,18.51,21.22,17.55,84.98,97.46,80.60,2025-10-09T17:24:52.949520
24.1542595,120.70409933,102.8,32.206,23.0,4.95,10,0.99,14,24.15424967,120.70413867,130.4,29.095,28.76,5.699999999999999,10,1.14,14,24.15432533,120.70407783,125.4,32.299,20.75,4.85,10,0.97,0,24.15427340997785,120.70410629882657,24.154247977924904,120.70408765908337,270.03,157.49,137.78,16.51,20.19,21.50,75.80,92.72,98.71,2025-10-09T17:24:53.152055
24.15427483,120.70410567,103.2,32.188,23.28,4.95,10,0.99,14,24.15424967,120.70413867,129.5,29.095,28.76,5.699999999999999,10,1.14,14,24.1543405,120.70408433,125.5,32.373,20.95,5.4,10,1.08,0,24.15428082745437,120.70411204739324,24.154262443370406,120.70409487700252,329.10,113.90,129.34,20.10,20.57,18.58,92.32,94.47,85.32,2025-10-09T17:24:53.354151
24.15429,120.70411133,103.2,31.891,22.18,4.95,10,0.99,14,24.154264,120.70414617,129.5,29.502,28.02,5.699999999999999,10,1.14,14,24.15435533,120.70409083,125.6,32.336,21.18,5.4,10,1.08,0,24.154295640963994,120.70411850921342,24.154277080211788,120.70410214296164,122.38,5.62,116.69,20.11,17.29,19.98,92.35,79.38,91.76,2025-10-09T17:24:53.555157
24.15430567,120.7041175,103.3,32.262,21.87,4.95,10,0.99,14,24.1542805,120.70415083,128.8,30.299,23.98,5.699999999999999,10,1.14,14,24.15437033,120.70409717,125.6,32.41,21.17,4.85,10,0.97,0,24.154314389365368,120.7041228567739,24.154292358634816,120.7041092672567,135.03,331.88,118.09,19.33,20.23,20.17,88.77,92.91,92.61,2025-10-09T17:24:53.758107
24.154321,120.70412317,103.1,31.595,20.74,5.3500000000000005,10,1.07,14,24.15429617,120.70415683,128.5,31.503,21.73,5.699999999999999,10,1.14,14,24.15438517,120.7041035,125.7,32.132,21.17,5.4,10,1.08,0,24.15432717362,120.70413061233877,24.1543073840864,120.70411646383505,177.22,270.00,108.24,22.36,20.19,22.12,102.65,92.72,101.58,2025-10-09T17:24:53.960242
