A_Date,A_Time,A_Lat,A_Lon,A_Alt,A_Spd,A_Crs,A_SatUsed,A_HDOP,A_NSatView,B_Date,B_Time,B_Lat,B_Lon,B_Alt,B_Spd,B_Crs,B_SatUsed,B_HDOP,B_NSatView,C_Date,C_Time,C_Lat,C_Lon,C_Alt,C_Spd,C_Crs,C_SatUsed,C_HDOP,C_NSatView,Roll,Pitch,Yaw,Ax,Ay,Az,Gx,Gy,Gz,Timestamp
2025-10-09,16:42:08,24.14996717,120.70273267,204.9,0.222,0.0,8,1.02,0,2025-10-09,16:42:08,24.1501225,120.7024105,138.1,0.037,0.0,8,1.02,0,2025-10-09,16:42:08,24.1502125,120.70245017,125.6,0.056,0.0,7,1.16,0,241.91,52.03,309.34,19.54,20.59,21.83,89.74,94.55,100.24,2025-10-09T16:42:13.029346
2025-10-09,16:42:08,24.14996683,120.70273267,204.7,0.407,0.0,9,0.85,0,2025-10-09,16:42:08,24.15012267,120.70241033,138.1,0.148,0.0,8,1.02,12,2025-10-09,16:42:08,24.15021217,120.70245033,125.9,0.259,0.0,7,1.16,0,226.44,56.24,306.53,19.90,19.97,21.57,91.40,91.69,99.06,2025-10-09T16:42:13.233502
2025-10-09,16:42:08,24.1499665,120.70273233,204.7,0.13,0.0,9,0.85,0,2025-10-09,16:42:08,24.15012317,120.70241033,138.1,0.037,0.0,8,1.02,12,2025-10-09,16:42:08,24.150212,120.70245033,125.9,0.296,0.0,7,1.16,11,195.50,39.37,302.31,15.70,20.08,20.81,72.11,92.19,95.55,2025-10-09T16:42:13.636938
2025-10-09,16:42:08,24.14996567,120.702732,204.8,0.093,0.0,9,0.85,0,2025-10-09,16:42:08,24.1501235,120.7024105,138.0,0.13,0.0,8,1.02,12,2025-10-09,16:42:08,24.15021183,120.70245033,125.9,0.5,0.0,7,1.16,11,175.81,47.81,282.62,17.74,22.29,16.71,81.44,102.37,76.74,2025-10-09T16:42:13.839672
2025-10-09,16:42:09,24.14996567,120.70273167,204.8,0.407,0.0,9,0.85,0,2025-10-09,16:42:09,24.15012383,120.70241033,138.0,0.167,0.0,8,1.02,12,2025-10-09,16:42:09,24.15021183,120.70245017,126.0,0.5,0.0,7,1.16,11,149.10,63.28,244.65,17.03,16.59,22.42,78.22,76.19,102.94,2025-10-09T16:42:14.041695
2025-10-09,16:42:09,24.14996617,120.70273167,204.9,0.259,0.0,9,0.85,0,2025-10-09,16:42:09,24.150124,120.70241033,138.0,0.37,0.0,8,1.02,12,2025-10-09,16:42:09,24.15021183,120.70245017,126.0,0.444,0.0,7,1.16,11,129.41,70.31,205.28,14.04,18.50,22.60,64.49,84.95,103.76,2025-10-09T16:42:14.244320
2025-10-09,16:42:09,24.14996633,120.7027315,204.9,0.259,0.0,9,0.85,0,2025-10-09,16:42:09,24.15012433,120.70241017,138.0,0.204,0.0,8,1.02,12,2025-10-09,16:42:09,24.15021167,120.7024505,126.2,0.815,0.0,7,1.16,11,123.78,75.93,167.31,18.77,16.78,17.54,86.20,77.04,80.54,2025-10-09T16:42:14.446638
2025-10-09,16:42:09,24.14996683,120.70273117,204.9,0.074,0.0,9,0.85,0,2025-10-09,16:42:09,24.15012467,120.70241033,138.0,0.074,0.0,8,1.02,12,2025-10-09,16:42:09,24.15021217,120.70245033,126.2,0.5,0.0,7,1.16,11,104.10,77.34,136.37,16.70,15.09,22.46,76.67,69.29,103.15,2025-10-09T16:42:14.648154
2025-10-09,16:42:10,24.149966,120.7027305,204.9,0.315,0.0,9,0.85,0,2025-10-09,16:42:09,24.150125,120.70241017,138.0,0.259,0.0,8,1.02,12,2025-10-09,16:42:09,24.15021233,120.70245067,126.7,0.426,0.0,7,1.16,11,109.72,87.18,109.65,13.52,14.50,19.53,62.10,66.57,89.69,2025-10-09T16:42:14.851144
2025-10-09,16:42:10,24.149966,120.7027305,205.1,0.315,0.0,9,0.85,0,2025-10-09,16:42:10,24.15012533,120.70241,138.0,0.333,0.0,8,1.02,12,2025-10-09,16:42:10,24.150213,120.70245067,126.9,0.204,0.0,7,1.16,11,73.16,43.59,99.81,17.79,19.12,19.11,81.68,87.78,87.75,2025-10-09T16:42:15.053359
2025-10-09,16:42:10,24.14996617,120.70273,205.2,0.056,0.0,9,0.85,0,2025-10-09,16:42:10,24.15012567,120.70241017,138.0,0.463,0.0,8,1.02,12,2025-10-09,16:42:10,24.15021267,120.70245067,126.8,0.37,0.0,7,1.16,11,59.10,61.87,92.78,21.52,18.61,18.55,98.82,85.46,85.16,2025-10-09T16:42:15.255564
2025-10-09,16:42:10,24.14996633,120.70272967,205.1,0.167,0.0,9,0.85,0,2025-10-09,16:42:10,24.15012567,120.70241,138.1,0.074,0.0,8,1.02,12,2025-10-09,16:42:10,24.15021267,120.70245067,126.9,0.482,0.0,7,1.16,11,85.81,56.24,88.56,22.18,19.04,20.30,101.83,87.41,93.20,2025-10-09T16:42:15.458106
2025-10-09,16:42:10,24.1499665,120.70272933,205.1,0.074,0.0,9,0.85,12,2025-10-09,16:42:10,24.15012617,120.70240967,138.1,0.241,0.0,8,1.02,12,2025-10-09,16:42:10,24.1502125,120.70245033,126.9,0.407,0.0,7,1.16,11,94.25,77.34,73.09,20.00,22.57,21.27,91.83,103.63,97.68,2025-10-09T16:42:15.860774
2025-10-09,16:42:11,24.14996683,120.70272933,205.1,0.167,0.0,9,0.85,12,2025-10-09,16:42:11,24.1501265,120.70240967,138.1,0.167,0.0,8,1.02,12,2025-10-09,16:42:10,24.15021233,120.702451,126.8,0.611,0.0,7,1.16,11,59.10,71.71,67.47,22.00,19.36,21.29,101.04,88.90,97.75,2025-10-09T16:42:16.064397
2025-10-09,16:42:11,24.1499665,120.70272883,205.1,0.185,0.0,9,0.85,12,2025-10-09,16:42:11,24.15012667,120.70240983,138.1,0.111,0.0,8,1.02,12,2025-10-09,16:42:11,24.15021217,120.70245083,126.7,0.074,0.0,7,1.16,11,50.66,67.49,59.03,16.66,19.38,22.26,76.48,88.97,102.21,2025-10-09T16:42:16.267112
2025-10-09,16:42:11,24.14996617,120.70272867,205.2,0.333,0.0,9,0.85,12,2025-10-09,16:42:11,24.15012717,120.70241,138.1,0.111,0.0,8,1.02,12,2025-10-09,16:42:11,24.15021183,120.702451,126.6,0.148,0.0,7,1.16,11,33.78,67.49,50.59,22.18,19.33,17.47,101.86,88.74,80.22,2025-10-09T16:42:16.469455
2025-10-09,16:42:11,24.14996567,120.70272833,205.2,0.037,0.0,9,0.85,12,2025-10-09,16:42:11,24.15012733,120.70240983,138.2,0.185,0.0,8,1.02,12,2025-10-09,16:42:11,24.15021167,120.702451,126.6,0.13,0.0,7,1.16,11,30.97,64.68,42.15,20.27,17.51,19.01,93.06,80.41,87.27,2025-10-09T16:42:16.671767
2025-10-09,16:42:11,24.14996533,120.70272783,205.4,0.333,0.0,9,0.85,12,2025-10-09,16:42:11,24.15012733,120.70241,138.1,0.185,0.0,8,1.02,12,2025-10-09,16:42:11,24.150211,120.702451,126.4,0.315,0.0,7,1.16,11,36.60,85.78,28.09,18.83,21.08,18.97,86.45,96.81,87.10,2025-10-09T16:42:16.873866
2025-10-09,16:42:12,24.14996433,120.70272783,205.5,0.482,0.0,9,0.85,12,2025-10-09,16:42:12,24.15012817,120.70240983,138.2,0.056,0.0,7,1.16,12,2025-10-09,16:42:12,24.15021033,120.702451,126.4,0.537,0.0,7,1.16,11,30.97,71.71,16.84,17.74,18.63,18.15,81.45,85.53,83.35,2025-10-09T16:42:17.276335
2025-10-09,16:42:12,24.14996417,120.70272783,205.4,0.63,0.0,9,0.85,12,2025-10-09,16:42:12,24.150129,120.70240967,138.2,0.148,0.0,7,1.16,12,2025-10-09,16:42:12,24.15021,120.7024515,126.4,0.315,0.0,6,1.32,11,26.75,78.74,8.40,19.34,20.46,17.76,88.80,93.93,81.56,2025-10-09T16:42:17.679125
2025-10-09,16:42:13,24.14996417,120.70272733,205.4,0.093,0.0,9,0.85,12,2025-10-09,16:42:13,24.1501295,120.7024095,138.2,0.148,0.0,7,1.16,12,2025-10-09,16:42:13,24.15021,120.702452,126.4,0.315,0.0,6,1.32,11,18.31,70.31,359.97,14.55,17.42,20.15,66.83,79.99,92.53,2025-10-09T16:42:17.881729
2025-10-09,16:42:13,24.14996383,120.702727,205.3,0.167,0.0,9,0.85,12,2025-10-09,16:42:13,24.15012983,120.7024095,138.2,0.037,0.0,7,1.16,12,2025-10-09,16:42:13,24.15021,120.702452,126.5,0.148,0.0,7,1.16,11,18.31,84.37,348.72,14.29,20.03,19.14,65.63,91.95,87.91,2025-10-09T16:42:18.083991
2025-10-09,16:42:13,24.149963,120.70272667,205.4,0.222,0.0,9,0.85,12,2025-10-09,16:42:13,24.15013033,120.70240967,138.2,0.074,0.0,7,1.16,12,2025-10-09,16:42:13,24.15021017,120.7024525,126.6,0.463,0.0,6,1.32,11,43.63,75.93,334.65,15.68,18.79,17.48,72.02,86.27,80.26,2025-10-09T16:42:18.286268
2025-10-09,16:42:13,24.14996183,120.7027265,205.4,0.352,0.0,9,0.85,12,2025-10-09,16:42:13,24.15013083,120.7024095,138.1,0.259,0.0,7,1.16,12,2025-10-09,16:42:13,24.15021017,120.7024525,126.7,0.463,0.0,6,1.32,11,128.00,59.06,32.31,12.50,20.46,18.44,57.41,93.97,84.69,2025-10-09T16:42:18.488265
2025-10-09,16:42:13,24.14996083,120.70272617,205.5,0.519,0.0,9,0.85,12,2025-10-09,16:42:13,24.15013117,120.70240967,138.1,0.167,0.0,7,1.16,12,2025-10-09,16:42:13,24.15021067,120.70245233,126.7,0.074,0.0,6,1.32,11,184.25,36.56,111.06,16.30,18.80,16.58,74.83,86.31,76.15,2025-10-09T16:42:18.691689
2025-10-09,16:42:14,24.14996033,120.70272617,205.6,0.111,0.0,9,0.85,12,2025-10-09,16:42:14,24.150131,120.70240967,138.1,0.148,0.0,6,1.8,12,2025-10-09,16:42:14,24.15021083,120.702453,126.9,0.37,0.0,6,1.32,11,229.25,8.43,185.59,20.76,17.50,21.51,95.34,80.36,98.77,2025-10-09T16:42:18.894228
2025-10-09,16:42:14,24.1499595,120.70272617,205.7,0.463,0.0,9,0.85,12,2025-10-09,16:42:14,24.15013117,120.7024095,138.1,0.185,0.0,6,1.8,12,2025-10-09,16:42:14,24.15021083,120.70245283,127.1,0.167,0.0,6,1.32,11,220.81,37.96,244.65,15.63,19.82,20.85,71.75,91.03,95.74,2025-10-09T16:42:19.096504
2025-10-09,16:42:14,24.149959,120.70272567,205.8,0.222,0.0,9,0.85,12,2025-10-09,16:42:14,24.150131,120.7024095,138.2,0.093,0.0,6,1.8,12,2025-10-09,16:42:14,24.15021133,120.70245317,127.3,0.185,0.0,6,1.32,11,348.78,39.37,298.09,21.77,17.24,20.30,99.95,79.15,93.21,2025-10-09T16:42:19.299829
2025-10-09,16:42:14,24.14995833,120.70272533,206.0,0.315,0.0,9,0.85,12,2025-10-09,16:42:14,24.15013067,120.70240917,138.2,0.13,0.0,6,1.8,12,2025-10-09,16:42:14,24.15021167,120.70245367,127.4,0.093,0.0,6,1.32,11,317.85,42.18,4.19,17.81,18.60,21.44,81.79,85.39,98.43,2025-10-09T16:42:19.502166
2025-10-09,16:42:14,24.149958,120.70272467,206.0,0.296,0.0,9,0.85,12,2025-10-09,16:42:14,24.15013067,120.70240917,138.2,0.259,0.0,6,1.8,12,2025-10-09,16:42:14,24.150212,120.70245367,127.4,0.019,0.0,6,1.32,11,300.97,35.15,46.37,19.04,18.88,21.92,87.43,86.71,100.63,2025-10-09T16:42:19.705097
2025-10-09,16:42:15,24.1499575,120.7027245,206.1,0.259,0.0,9,0.85,12,2025-10-09,16:42:15,24.15013083,120.702409,138.3,0.074,0.0,7,1.16,12,2025-10-09,16:42:15,24.15021217,120.70245367,127.5,0.093,0.0,6,1.32,11,4.25,47.81,118.09,19.62,18.58,19.37,90.10,85.33,88.93,2025-10-09T16:42:19.907091
2025-10-09,16:42:15,24.149957,120.70272417,206.3,0.13,0.0,8,1.02,12,2025-10-09,16:42:15,24.150131,120.702409,138.3,0.019,0.0,6,1.8,12,2025-10-09,16:42:15,24.15021283,120.702454,127.5,0.796,0.0,6,1.32,11,320.66,36.56,191.22,17.38,22.70,19.23,79.81,104.24,88.32,2025-10-09T16:42:20.108406
2025-10-09,16:42:15,24.149957,120.70272417,206.3,0.13,0.0,8,1.02,12,2025-10-09,16:42:15,24.15013083,120.70240883,138.4,0.093,0.0,6,1.8,12,2025-10-09,16:42:15,24.1502125,120.70245383,127.6,0.444,0.0,6,1.32,11,326.28,25.31,260.12,21.08,19.71,19.63,96.78,90.49,90.14,2025-10-09T16:42:20.311236
2025-10-09,16:42:15,24.14995667,120.702724,206.3,0.056,0.0,8,1.02,12,2025-10-09,16:42:15,24.150131,120.70240867,138.3,0.148,0.0,6,1.8,12,2025-10-09,16:42:15,24.15021267,120.70245383,127.5,0.741,0.0,6,1.32,11,333.31,21.09,334.65,18.33,19.41,18.04,84.18,89.11,82.84,2025-10-09T16:42:20.513221
2025-10-09,16:42:15,24.14995667,120.702724,206.4,0.056,0.0,8,1.02,12,2025-10-09,16:42:15,24.15013117,120.7024085,138.3,0.278,0.0,6,1.8,12,2025-10-09,16:42:15,24.15021267,120.70245383,127.5,0.741,0.0,6,1.32,11,308.00,352.96,11.21,21.69,20.25,21.98,99.60,92.96,100.93,2025-10-09T16:42:20.715612
2025-10-09,16:42:15,24.14995633,120.70272367,206.4,0.389,0.0,8,1.02,12,2025-10-09,16:42:16,24.15013133,120.70240883,138.3,0.426,0.0,6,1.8,12,2025-10-09,16:42:15,24.150213,120.70245417,127.5,0.556,0.0,6,1.32,11,315.03,66.09,26.69,17.17,16.84,20.19,78.85,77.34,92.71,2025-10-09T16:42:20.918115
2025-10-09,16:42:16,24.14995667,120.7027235,206.4,0.13,0.0,8,1.03,12,2025-10-09,16:42:16,24.15013183,120.702409,138.2,0.407,0.0,6,1.8,12,2025-10-09,16:42:16,24.150213,120.70245467,127.6,0.482,0.0,6,1.32,11,292.53,32.34,37.94,21.38,17.44,16.10,98.15,80.08,73.93,2025-10-09T16:42:21.120101
2025-10-09,16:42:16,24.14995717,120.70272317,206.4,0.259,0.0,8,1.03,12,2025-10-09,16:42:16,24.15013183,120.70240867,138.1,0.389,0.0,6,1.81,12,2025-10-09,16:42:16,24.150213,120.7024545,127.7,0.63,0.0,6,1.32,11,295.35,50.62,71.69,20.29,20.76,18.57,93.17,95.31,85.28,2025-10-09T16:42:21.320923
2025-10-09,16:42:16,24.1499575,120.7027225,206.3,0.407,0.0,8,1.03,12,2025-10-09,16:42:16,24.150132,120.70240883,138.1,0.148,0.0,6,1.81,12,2025-10-09,16:42:16,24.150213,120.70245483,127.7,0.537,0.0,6,1.32,11,286.91,36.56,120.90,18.38,21.06,19.28,84.41,96.73,88.52,2025-10-09T16:42:21.524018
2025-10-09,16:42:16,24.14995767,120.7027225,206.2,0.259,0.0,8,1.03,12,2025-10-09,16:42:16,24.1501325,120.702409,138.1,0.241,0.0,6,1.81,12,2025-10-09,16:42:16,24.15021267,120.70245467,127.7,0.241,0.0,6,1.32,11,281.28,42.18,137.78,20.04,20.68,19.58,92.02,94.97,89.93,2025-10-09T16:42:21.726244
2025-10-09,16:42:16,24.149958,120.70272217,206.3,0.148,0.0,8,1.03,12,2025-10-09,16:42:17,24.15013267,120.70240883,138.0,0.259,0.0,7,1.81,12,2025-10-09,16:42:17,24.15021233,120.70245483,127.7,0.185,0.0,6,1.32,11,289.72,40.78,163.09,18.27,19.69,19.06,83.90,90.40,87.52,2025-10-09T16:42:21.928346
2025-10-09,16:42:17,24.14995817,120.70272217,206.4,0.056,0.0,8,1.03,12,2025-10-09,16:42:17,24.15013333,120.70240867,138.0,0.278,0.0,7,1.81,12,2025-10-09,16:42:17,24.15021233,120.70245483,127.7,0.185,0.0,6,1.32,11,288.31,80.15,174.34,20.95,17.12,22.33,96.20,78.62,102.51,2025-10-09T16:42:22.130328
2025-10-09,16:42:17,24.1499585,120.70272183,206.4,0.148,0.0,8,1.03,12,2025-10-09,16:42:17,24.1501335,120.702409,137.9,0.259,0.0,7,1.81,12,2025-10-09,16:42:17,24.15021217,120.70245483,127.7,0.056,0.0,6,1.32,11,251.75,47.81,185.59,16.15,18.64,25.31,74.17,85.59,116.24,2025-10-09T16:42:22.332995
2025-10-09,16:42:17,24.14995833,120.70272133,206.3,0.037,0.0,8,1.03,12,2025-10-09,16:42:17,24.15013383,120.702409,137.9,0.111,0.0,7,1.81,12,2025-10-09,16:42:17,24.15021217,120.70245483,127.7,0.056,0.0,6,1.32,11,233.47,80.15,189.81,22.26,19.75,20.01,102.20,90.68,91.88,2025-10-09T16:42:22.735878
2025-10-09,16:42:18,24.149958,120.70272067,206.3,0.056,0.0,8,1.03,12,2025-10-09,16:42:18,24.15013417,120.70240917,137.8,0.037,0.0,8,1.81,12,2025-10-09,16:42:18,24.15021217,120.70245483,127.7,0.167,0.0,6,1.32,11,223.63,71.71,195.44,21.30,23.12,21.04,97.80,106.15,96.62,2025-10-09T16:42:22.938221
2025-10-09,16:42:18,24.14995783,120.70272033,206.2,0.148,0.0,8,1.03,12,2025-10-09,16:42:18,24.15013433,120.70240933,137.8,0.074,0.0,8,1.81,12,2025-10-09,16:42:18,24.150212,120.70245517,127.8,0.167,0.0,6,1.32,11,206.75,70.31,202.47,22.63,23.48,18.74,103.90,107.82,86.04,2025-10-09T16:42:23.140850
2025-10-09,16:42:18,24.14995783,120.70272033,206.2,0.222,0.0,8,1.03,12,2025-10-09,16:42:18,24.15013483,120.7024095,137.7,0.074,0.0,8,1.1,12,2025-10-09,16:42:18,24.150212,120.7024555,127.8,0.037,0.0,6,1.32,11,216.60,82.96,209.50,20.51,23.66,17.54,94.20,108.63,80.54,2025-10-09T16:42:23.343536
2025-10-09,16:42:18,24.14995783,120.70271983,206.2,0.241,0.0,8,1.03,12,2025-10-09,16:42:18,24.15013517,120.70240967,137.6,0.056,0.0,8,1.81,12,2025-10-09,16:42:18,24.1502115,120.702456,127.9,0.537,0.0,6,1.32,11,240.50,67.49,234.81,19.71,26.62,17.58,90.50,122.25,80.74,2025-10-09T16:42:23.546154
2025-10-09,16:42:18,24.14995783,120.70271967,206.2,0.426,0.0,8,1.03,12,2025-10-09,16:42:18,24.15013517,120.70241,137.6,0.5,0.0,8,1.81,12,2025-10-09,16:42:18,24.1502115,120.702456,128.0,0.537,0.0,6,1.32,11,260.19,54.84,285.44,23.86,26.61,17.60,109.56,122.20,80.80,2025-10-09T16:42:23.748853
2025-10-09,16:42:19,24.149958,120.7027195,206.1,0.37,0.0,8,1.03,12,2025-10-09,16:42:19,24.15013533,120.70241017,137.5,0.407,0.0,8,1.81,12,2025-10-09,16:42:19,24.1502115,120.70245633,128.0,0.241,0.0,6,1.32,12,253.16,39.37,314.97,23.37,22.69,17.92,107.33,104.20,82.26,2025-10-09T16:42:23.950204
2025-10-09,16:42:19,24.14995817,120.7027195,206.2,0.148,0.0,8,1.03,12,2025-10-09,16:42:19,24.15013583,120.70241017,137.4,0.167,0.0,8,1.81,12,2025-10-09,16:42:19,24.1502115,120.7024565,128.1,0.167,0.0,6,1.32,12,255.97,50.62,324.81,20.06,27.53,19.20,92.12,126.43,88.15,2025-10-09T16:42:24.153373
2025-10-09,16:42:19,24.14995833,120.7027195,206.2,0.074,0.0,8,1.03,12,2025-10-09,16:42:19,24.150136,120.70241033,137.3,0.241,0.0,7,1.81,12,2025-10-09,16:42:19,24.150211,120.70245683,128.1,0.333,0.0,6,1.32,12,244.72,54.84,330.44,22.96,25.21,22.37,105.41,115.74,102.72,2025-10-09T16:42:24.356053
2025-10-09,16:42:19,24.14995867,120.70271933,206.2,0.222,0.0,8,1.03,12,2025-10-09,16:42:19,24.15013617,120.70241067,137.3,0.0,0.0,7,1.81,12,2025-10-09,16:42:19,24.150211,120.70245683,128.2,0.037,0.0,6,1.32,12,243.31,66.09,334.65,23.92,22.43,18.52,109.84,103.02,85.02,2025-10-09T16:42:24.558529
2025-10-09,16:42:19,24.14995833,120.70271917,206.3,0.185,0.0,8,1.03,12,2025-10-09,16:42:19,24.1501365,120.70241067,137.2,0.13,0.0,7,1.81,12,2025-10-09,16:42:19,24.15021083,120.702457,128.2,0.037,0.0,6,1.32,12,227.85,66.09,340.28,21.55,23.31,18.11,98.95,107.04,83.14,2025-10-09T16:42:24.761264
2025-10-09,16:42:20,24.14995817,120.702719,206.3,0.093,0.0,8,1.03,12,2025-10-09,16:42:20,24.15013667,120.70241083,137.2,0.074,0.0,7,1.81,12,2025-10-09,16:42:20,24.15021083,120.702457,128.3,0.074,0.0,6,1.32,12,233.47,68.90,348.72,23.64,20.53,18.14,108.53,94.26,83.29,2025-10-09T16:42:24.963480
2025-10-09,16:42:20,24.14995833,120.702719,206.3,0.222,0.0,8,1.03,12,2025-10-09,16:42:20,24.15013683,120.702411,137.2,0.019,0.0,7,1.81,12,2025-10-09,16:42:20,24.15021067,120.70245717,128.4,0.056,0.0,6,1.32,12,237.69,71.71,357.15,23.93,22.63,18.03,109.90,103.91,82.77,2025-10-09T16:42:25.166567
2025-10-09,16:42:20,24.1499585,120.70271867,206.4,0.037,0.0,8,1.03,12,2025-10-09,16:42:20,24.15013717,120.70241117,137.1,0.074,0.0,7,1.81,12,2025-10-09,16:42:20,24.1502105,120.70245733,128.4,0.185,0.0,6,1.32,12,248.94,68.90,29.50,19.77,22.68,19.35,90.77,104.12,88.87,2025-10-09T16:42:25.368620
2025-10-09,16:42:20,24.1499585,120.70271817,206.4,0.315,0.0,8,1.03,12,2025-10-09,16:42:20,24.15013767,120.70241133,137.0,0.278,0.0,7,1.81,12,2025-10-09,16:42:20,24.15021033,120.70245733,128.4,0.056,0.0,6,1.32,12,272.85,61.87,82.94,21.70,20.81,19.79,99.65,95.55,90.86,2025-10-09T16:42:25.571248
2025-10-09,16:42:20,24.14995867,120.70271817,206.4,0.296,0.0,8,1.03,12,2025-10-09,16:42:20,24.150138,120.70241167,137.0,0.204,0.0,7,1.81,12,2025-10-09,16:42:20,24.15021017,120.70245733,128.5,0.167,0.0,6,1.32,12,285.50,39.37,149.03,21.20,26.44,20.61,97.33,121.42,94.62,2025-10-09T16:42:25.773384
2025-10-09,16:42:21,24.14995867,120.702718,206.3,0.019,0.0,8,1.03,12,2025-10-09,16:42:21,24.15013817,120.70241167,137.0,0.093,0.0,7,1.81,12,2025-10-09,16:42:21,24.15021,120.70245733,128.5,0.019,0.0,6,1.32,12,292.53,36.56,206.69,24.33,24.47,17.75,111.71,112.37,81.52,2025-10-09T16:42:25.975508
2025-10-09,16:42:21,24.1499585,120.702718,206.3,0.241,0.0,8,1.03,12,2025-10-09,16:42:21,24.15013867,120.702412,136.9,0.13,0.0,7,1.81,12,2025-10-09,16:42:21,24.15021,120.70245733,128.6,0.019,0.0,6,1.32,12,319.25,28.12,271.37,20.56,27.97,18.25,94.43,128.45,83.81,2025-10-09T16:42:26.177765
2025-10-09,16:42:21,24.14995833,120.70271783,206.3,0.0,0.0,8,1.03,12,2025-10-09,16:42:21,24.150139,120.702412,136.9,0.167,0.0,8,1.81,12,2025-10-09,16:42:21,24.15020983,120.70245733,128.7,0.111,0.0,6,1.32,12,337.53,25.31,331.84,25.02,24.38,17.37,114.87,111.93,79.75,2025-10-09T16:42:26.379739
2025-10-09,16:42:21,24.149959,120.70271767,206.4,0.482,0.0,8,1.03,12,2025-10-09,16:42:21,24.15013917,120.70241233,136.8,0.074,0.0,8,1.81,12,2025-10-09,16:42:21,24.15021,120.70245767,128.7,0.148,0.0,6,1.32,12,345.97,23.90,26.69,21.25,22.52,20.22,97.56,103.39,92.83,2025-10-09T16:42:26.582028
2025-10-09,16:42:21,24.149959,120.70271767,206.3,0.13,0.0,8,1.03,12,2025-10-09,16:42:21,24.15013967,120.7024125,136.8,0.019,0.0,8,1.81,12,2025-10-09,16:42:21,24.15020983,120.70245783,128.7,0.185,0.0,6,1.32,12,350.19,9.84,87.15,22.15,27.00,19.69,101.69,123.97,90.40,2025-10-09T16:42:26.784623
2025-10-09,16:42:22,24.149959,120.7027175,206.4,0.204,0.0,8,1.03,12,2025-10-09,16:42:22,24.15013983,120.70241267,136.7,0.074,0.0,8,1.81,12,2025-10-09,16:42:21,24.15020983,120.70245783,128.8,0.185,0.0,6,1.32,12,358.63,21.09,146.22,22.96,24.30,18.31,105.43,111.60,84.06,2025-10-09T16:42:26.987301
2025-10-09,16:42:22,24.14995917,120.7027175,206.4,0.074,0.0,8,1.03,12,2025-10-09,16:42:22,24.15014,120.70241283,136.7,0.148,0.0,8,1.81,12,2025-10-09,16:42:22,24.15020967,120.70245783,128.8,0.148,0.0,6,1.32,12,351.60,12.65,209.50,21.10,24.87,19.76,96.87,114.22,90.76,2025-10-09T16:42:27.189420
2025-10-09,16:42:22,24.149959,120.7027175,206.4,0.148,0.0,8,1.03,12,2025-10-09,16:42:22,24.15014033,120.702413,136.6,0.074,0.0,8,1.81,12,2025-10-09,16:42:22,24.1502095,120.702458,128.9,0.222,0.0,6,1.32,12,353.00,11.24,269.97,20.06,25.36,15.47,92.12,116.43,71.01,2025-10-09T16:42:27.392571
2025-10-09,16:42:22,24.14995883,120.70271733,206.4,0.222,0.0,8,1.03,12,2025-10-09,16:42:22,24.15014067,120.70241317,136.6,0.056,0.0,8,1.81,12,2025-10-09,16:42:22,24.1502095,120.702458,128.9,0.185,0.0,6,1.32,12,0.03,7.03,333.25,22.55,25.39,19.62,103.55,116.59,90.10,2025-10-09T16:42:27.594940
2025-10-09,16:42:22,24.14995867,120.70271733,206.5,0.13,0.0,8,1.03,12,2025-10-09,16:42:22,24.15014083,120.70241317,136.5,0.148,0.0,8,1.81,12,2025-10-09,16:42:22,24.15020933,120.70245833,129.0,0.167,0.0,6,1.32,12,9.88,16.88,39.34,21.69,25.00,18.09,99.59,114.77,83.09,2025-10-09T16:42:27.797707
2025-10-09,16:42:23,24.14995833,120.70271717,206.6,0.333,0.0,8,1.03,12,2025-10-09,16:42:23,24.150141,120.70241333,136.5,0.13,0.0,8,1.81,12,2025-10-09,16:42:23,24.150209,120.70245833,129.0,0.296,0.0,6,1.32,12,343.16,14.06,89.97,19.52,21.80,21.20,89.63,100.12,97.33,2025-10-09T16:42:28.000033
2025-10-09,16:42:23,24.14995833,120.70271733,206.8,0.426,0.0,8,1.03,12,2025-10-09,16:42:23,24.15014117,120.7024135,136.5,0.093,0.0,8,1.81,12,2025-10-09,16:42:23,24.150209,120.70245867,129.2,0.037,0.0,6,1.32,12,336.13,33.74,116.69,24.58,24.74,17.94,112.87,113.60,82.39,2025-10-09T16:42:28.202755
2025-10-09,16:42:23,24.14995867,120.7027175,206.7,0.593,0.0,8,1.03,12,2025-10-09,16:42:23,24.1501415,120.70241383,136.5,0.204,0.0,8,1.81,12,2025-10-09,16:42:23,24.150209,120.70245883,129.2,0.093,0.0,6,1.32,12,308.00,33.74,125.12,22.01,23.97,19.67,101.05,110.05,90.33,2025-10-09T16:42:28.404175
2025-10-09,16:42:23,24.14995833,120.70271767,206.9,0.611,0.0,8,1.03,12,2025-10-09,16:42:23,24.1501415,120.702414,136.4,0.093,0.0,7,1.81,12,2025-10-09,16:42:23,24.15020883,120.702459,129.3,0.222,0.0,6,1.32,12,271.44,53.43,134.97,24.55,24.03,22.33,112.74,110.33,102.51,2025-10-09T16:42:28.606976
2025-10-09,16:42:23,24.149958,120.7027175,207.0,0.204,0.0,8,1.03,12,2025-10-09,16:42:23,24.15014167,120.70241417,136.4,0.019,0.0,7,1.81,12,2025-10-09,16:42:23,24.15020883,120.702459,129.4,0.278,0.0,7,1.19,12,248.94,64.68,142.00,22.57,21.76,19.93,103.66,99.91,91.51,2025-10-09T16:42:28.809062
2025-10-09,16:42:24,24.14995767,120.7027175,207.1,0.204,0.0,8,1.03,12,2025-10-09,16:42:24,24.150142,120.70241417,136.4,0.111,0.0,7,1.81,12,2025-10-09,16:42:24,24.15020883,120.702459,129.4,0.019,0.0,7,1.19,12,258.78,68.90,144.81,23.74,19.96,19.80,109.02,91.64,90.93,2025-10-09T16:42:29.011380
2025-10-09,16:42:24,24.149957,120.70271733,207.3,0.185,0.0,8,1.03,12,2025-10-09,16:42:24,24.15014217,120.70241433,136.3,0.037,0.0,6,1.81,12,2025-10-09,16:42:24,24.15020867,120.70245917,129.5,0.093,0.0,7,1.19,12,253.16,56.24,150.44,17.80,22.47,19.62,81.72,103.18,90.10,2025-10-09T16:42:29.214048
2025-10-09,16:42:24,24.14995617,120.702717,207.4,0.296,0.0,8,1.03,12,2025-10-09,16:42:24,24.15014233,120.7024145,136.3,0.13,0.0,6,1.81,12,2025-10-09,16:42:24,24.1502085,120.70245933,129.5,0.222,0.0,7,1.19,12,247.53,67.49,163.09,19.66,20.69,19.18,90.26,94.98,88.08,2025-10-09T16:42:29.416239
2025-10-09,16:42:24,24.14995617,120.702717,207.6,0.296,0.0,8,1.03,12,2025-10-09,16:42:24,24.1501425,120.70241467,136.3,0.111,0.0,6,1.81,12,2025-10-09,16:42:24,24.15020833,120.702459,129.6,0.13,0.0,7,1.19,12,226.44,60.46,170.12,22.54,18.63,18.10,103.48,85.53,83.13,2025-10-09T16:42:29.618825
2025-10-09,16:42:24,24.14995617,120.70271683,207.6,0.352,0.0,8,1.03,12,2025-10-09,16:42:24,24.15014283,120.70241467,136.2,0.148,0.0,6,1.81,12,2025-10-09,16:42:24,24.15020833,120.70245917,129.6,0.056,0.0,7,1.19,12,233.47,82.96,172.94,23.40,21.65,18.48,107.47,99.40,84.84,2025-10-09T16:42:29.821266
2025-10-09,16:42:25,24.14995567,120.70271633,207.7,0.185,0.0,8,1.03,12,2025-10-09,16:42:25,24.15014283,120.70241483,136.2,0.185,0.0,6,1.81,12,2025-10-09,16:42:25,24.15020817,120.70245933,129.7,0.148,0.0,8,1.02,12,206.75,64.68,181.37,21.24,22.93,17.16,97.52,105.30,78.80,2025-10-09T16:42:30.023821
2025-10-09,16:42:25,24.14995567,120.70271633,207.7,0.185,0.0,8,1.03,12,2025-10-09,16:42:25,24.15014317,120.702415,136.2,0.296,0.0,6,1.81,12,2025-10-09,16:42:25,24.150208,120.7024595,129.7,0.259,0.0,7,1.19,12,187.06,64.68,185.59,19.91,19.05,18.28,91.40,87.50,83.95,2025-10-09T16:42:30.225988
2025-10-09,16:42:25,24.149956,120.70271633,207.7,0.13,0.0,8,1.03,12,2025-10-09,16:42:25,24.1501435,120.7024155,136.2,0.167,0.0,6,1.81,12,2025-10-09,16:42:25,24.15020817,120.7024595,129.8,0.167,0.0,7,1.19,12,210.97,75.93,188.40,20.23,14.94,20.12,92.90,68.62,92.41,2025-10-09T16:42:30.428727
2025-10-09,16:42:25,24.14995633,120.70271617,207.7,0.111,0.0,8,1.03,12,2025-10-09,16:42:25,24.1501435,120.7024155,136.1,0.167,0.0,6,1.81,12,2025-10-09,16:42:25,24.15020817,120.7024595,129.7,0.167,0.0,7,1.19,12,202.53,73.12,194.03,18.75,23.30,19.08,86.10,106.97,87.62,2025-10-09T16:42:30.630867
2025-10-09,16:42:25,24.14995633,120.702716,207.7,0.111,0.0,8,1.03,12,2025-10-09,16:42:25,24.15014383,120.70241567,136.0,0.13,0.0,6,1.81,12,2025-10-09,16:42:25,24.150208,120.7024595,129.8,0.185,0.0,7,1.19,12,202.53,95.62,201.06,18.08,24.41,19.39,83.04,112.08,89.05,2025-10-09T16:42:30.833956
2025-10-09,16:42:26,24.14995633,120.70271567,207.7,0.167,0.0,8,1.03,12,2025-10-09,16:42:26,24.150144,120.70241583,135.9,0.111,0.0,6,1.81,12,2025-10-09,16:42:26,24.15020817,120.70245967,129.9,0.093,0.0,7,1.19,12,191.28,81.56,209.50,21.94,17.23,19.81,100.76,79.11,90.98,2025-10-09T16:42:31.036096
2025-10-09,16:42:26,24.149956,120.7027155,207.7,0.315,0.0,8,1.03,12,2025-10-09,16:42:26,24.15014417,120.702416,135.8,0.111,0.0,6,1.81,12,2025-10-09,16:42:26,24.150208,120.70245967,129.9,0.352,0.0,7,1.19,12,206.75,81.56,213.72,21.14,20.00,19.94,97.06,91.86,91.56,2025-10-09T16:42:31.238195
2025-10-09,16:42:26,24.14995617,120.70271533,207.8,0.074,0.0,8,1.03,12,2025-10-09,16:42:26,24.1501445,120.70241617,135.8,0.204,0.0,6,1.81,12,2025-10-09,16:42:26,24.15020817,120.70245983,129.9,0.056,0.0,7,1.19,12,209.56,67.49,219.34,19.72,17.45,20.70,90.56,80.15,95.06,2025-10-09T16:42:31.441257
2025-10-09,16:42:26,24.14995617,120.70271517,207.7,0.093,0.0,8,1.03,12,2025-10-09,16:42:26,24.15014467,120.70241633,135.7,0.13,0.0,6,1.81,12,2025-10-09,16:42:26,24.15020817,120.70245983,130.0,0.333,0.0,7,1.19,12,223.63,89.99,222.15,20.77,17.81,22.60,95.38,81.77,103.78,2025-10-09T16:42:31.643664
2025-10-09,16:42:26,24.14995617,120.70271517,207.7,0.13,0.0,8,1.03,12,2025-10-09,16:42:26,24.15014483,120.70241667,135.7,0.148,0.0,6,1.81,12,2025-10-09,16:42:26,24.1502085,120.70245983,130.0,0.259,0.0,7,1.19,12,215.19,91.40,229.19,18.19,19.90,18.07,83.53,91.37,82.98,2025-10-09T16:42:31.845852
2025-10-09,16:42:27,24.14995667,120.702715,207.7,0.185,0.0,8,1.03,12,2025-10-09,16:42:27,24.15014517,120.70241683,135.5,0.13,0.0,6,1.81,12,2025-10-09,16:42:27,24.15020833,120.70245983,130.1,0.13,0.0,7,1.19,12,218.00,95.62,234.81,18.66,21.72,20.61,85.70,99.74,94.63,2025-10-09T16:42:32.047785
2025-10-09,16:42:27,24.149957,120.70271433,207.6,0.204,0.0,8,1.03,12,2025-10-09,16:42:27,24.1501455,120.70241733,135.4,0.167,0.0,6,1.81,12,2025-10-09,16:42:27,24.15020833,120.70245983,130.1,0.167,0.0,7,1.19,12,222.22,95.62,240.44,20.95,18.95,18.39,96.21,87.02,84.44,2025-10-09T16:42:32.249942
2025-10-09,16:42:27,24.149957,120.70271433,207.6,0.204,0.0,8,1.03,12,2025-10-09,16:42:27,24.15014583,120.70241767,135.3,0.093,0.0,6,1.81,12,2025-10-09,16:42:27,24.1502085,120.70246,130.1,0.167,0.0,7,1.19,12,206.75,95.62,250.28,22.54,20.76,14.57,103.48,95.34,66.88,2025-10-09T16:42:32.451773
2025-10-09,16:42:27,24.14995733,120.70271417,207.6,0.056,0.0,8,1.03,12,2025-10-09,16:42:27,24.15014633,120.702418,135.2,0.407,0.0,6,1.81,12,2025-10-09,16:42:27,24.15020833,120.70246017,130.1,0.13,0.0,7,1.19,12,142.06,139.21,267.15,19.06,21.15,22.41,87.52,97.13,102.90,2025-10-09T16:42:32.653862
2025-10-09,16:42:27,24.14995733,120.702714,207.7,0.093,0.0,8,1.03,12,2025-10-09,16:42:28,24.1501465,120.70241817,135.2,0.222,0.0,6,1.81,12,2025-10-09,16:42:27,24.150208,120.70246033,130.1,0.148,0.0,7,1.19,12,300.97,274.21,305.12,19.75,20.19,17.50,90.70,92.73,80.36,2025-10-09T16:42:32.856376
2025-10-09,16:42:28,24.1499575,120.70271383,207.7,0.13,0.0,8,1.03,12,2025-10-09,16:42:28,24.15014667,120.70241833,135.1,0.111,0.0,6,1.81,12,2025-10-09,16:42:28,24.1502075,120.7024605,130.1,0.0,0.0,7,1.19,12,188.47,354.36,334.65,21.11,18.59,18.59,96.94,85.36,85.38,2025-10-09T16:42:33.059068
2025-10-09,16:42:28,24.1499575,120.7027135,207.8,0.074,0.0,8,1.03,12,2025-10-09,16:42:28,24.15014683,120.7024185,135.0,0.148,0.0,6,1.81,12,2025-10-09,16:42:28,24.15020717,120.7024605,130.1,0.185,0.0,7,1.19,12,94.25,80.15,52.00,20.64,18.24,19.51,94.76,83.75,89.57,2025-10-09T16:42:33.261456
2025-10-09,16:42:28,24.14995767,120.70271317,207.8,0.093,0.0,8,1.03,12,2025-10-09,16:42:28,24.150147,120.70241867,135.0,0.13,0.0,6,1.81,12,2025-10-09,16:42:28,24.150207,120.70246067,130.1,0.315,0.0,7,1.19,12,47.85,129.36,136.38,21.02,17.65,21.50,96.54,81.05,98.72,2025-10-09T16:42:33.464062
2025-10-09,16:42:28,24.149958,120.70271233,207.8,0.222,0.0,8,1.03,12,2025-10-09,16:42:28,24.15014717,120.70241883,134.9,0.093,0.0,6,1.81,12,2025-10-09,16:42:28,24.15020683,120.70246067,130.1,0.13,0.0,7,1.19,12,348.78,175.76,215.13,18.92,19.66,18.82,86.87,90.27,86.41,2025-10-09T16:42:33.666184
2025-10-09,16:42:28,24.149958,120.70271233,207.8,0.222,0.0,8,1.03,12,2025-10-09,16:42:29,24.1501475,120.70241883,134.9,0.241,0.0,7,1.81,12,2025-10-09,16:42:29,24.15020683,120.70246067,130.1,0.074,0.0,7,1.19,12,334.72,215.14,293.88,20.78,22.34,19.90,95.44,102.59,91.38,2025-10-09T16:42:33.868288
2025-10-09,16:42:29,24.1499585,120.70271183,207.8,0.241,0.0,8,1.03,12,2025-10-09,16:42:29,24.15014767,120.702419,134.9,0.167,0.0,7,1.81,12,2025-10-09,16:42:29,24.15020683,120.70246067,130.1,0.074,0.0,7,1.19,12,9.88,171.55,1.38,20.88,20.23,18.52,95.87,92.87,85.04,2025-10-09T16:42:34.070307
2025-10-09,16:42:29,24.1499585,120.70271183,208.0,0.241,0.0,8,0.98,12,2025-10-09,16:42:29,24.15014783,120.70241917,134.8,0.111,0.0,7,1.81,12,2025-10-09,16:42:29,24.15020683,120.70246083,130.1,0.037,0.0,7,1.19,13,23.94,146.24,75.91,18.32,16.77,21.16,84.11,77.02,97.18,2025-10-09T16:42:34.272518
2025-10-09,16:42:29,24.149959,120.70271167,208.0,0.167,0.0,8,0.98,12,2025-10-09,16:42:29,24.15014783,120.70241967,134.8,0.519,0.0,6,1.81,12,2025-10-09,16:42:29,24.150207,120.70246017,130.2,0.556,0.0,7,1.19,13,168.78,165.93,136.38,21.93,19.15,18.85,100.72,87.92,86.55,2025-10-09T16:42:34.474861
2025-10-09,16:42:29,24.14996033,120.7027115,208.0,0.315,0.0,8,0.98,12,2025-10-09,16:42:29,24.150148,120.70242017,134.8,0.593,0.0,6,1.81,12,2025-10-09,16:42:29,24.1502065,120.7024605,130.3,0.556,0.0,7,1.19,13,284.10,35.15,171.54,20.15,20.92,20.29,92.54,96.05,93.17,2025-10-09T16:42:34.677018
2025-10-09,16:42:30,24.14996033,120.70271217,207.8,1.148,0.0,8,0.98,12,2025-10-09,16:42:30,24.15014833,120.702421,134.8,1.167,0.0,6,1.81,12,2025-10-09,16:42:30,24.15020667,120.70246017,130.2,0.722,0.0,7,1.19,13,285.50,25.30,254.50,19.37,20.57,17.64,88.96,94.46,80.98,2025-10-09T16:42:34.879116
2025-10-09,16:42:30,24.14996033,120.70271217,207.7,1.148,0.0,8,1.03,12,2025-10-09,16:42:30,24.15014867,120.70242233,134.9,1.852,0.0,6,1.81,12,2025-10-09,16:42:30,24.15020667,120.70246033,130.3,0.537,0.0,7,1.19,13,353.00,99.83,313.57,20.05,22.87,19.83,92.06,105.01,91.04,2025-10-09T16:42:35.081484
2025-10-09,16:42:30,24.14996167,120.702714,207.7,2.296,0.0,8,1.03,12,2025-10-09,16:42:30,24.15014867,120.70242383,134.8,2.185,84.14,6,1.81,12,2025-10-09,16:42:30,24.15020567,120.7024595,130.3,0.778,0.0,7,1.19,13,16.91,9.84,12.63,22.06,19.71,21.68,101.30,90.49,99.56,2025-10-09T16:42:35.283980
2025-10-09,16:42:30,24.1499625,120.702715,207.7,2.556,0.0,8,1.03,12,2025-10-09,16:42:30,24.1501485,120.7024255,134.8,2.667,92.6,6,1.81,12,2025-10-09,16:42:30,24.150205,120.70246,130.5,0.315,0.0,7,1.19,13,275.66,33.74,108.25,18.37,18.84,19.69,84.37,86.49,90.43,2025-10-09T16:42:35.486262
2025-10-09,16:42:30,24.1499625,120.70271567,207.6,2.926,26.7,8,1.03,12,2025-10-09,16:42:30,24.1501485,120.7024255,134.7,2.667,92.6,6,1.81,12,2025-10-09,16:42:30,24.15020483,120.702461,130.5,1.278,0.0,7,1.19,13,11.28,316.40,209.50,22.66,22.17,23.71,104.04,101.79,108.87,2025-10-09T16:42:35.689947
2025-10-09,16:42:30,24.1499625,120.70271567,207.5,2.926,26.7,8,1.03,12,2025-10-09,16:42:30,24.15014867,120.70242733,134.7,3.111,91.26,6,1.81,12,2025-10-09,16:42:31,24.15020433,120.70246267,130.5,1.945,107.32,7,1.19,13,60.50,126.55,316.38,19.09,20.55,15.33,87.68,94.36,70.41,2025-10-09T16:42:35.892459
2025-10-09,16:42:31,24.1499635,120.70271633,207.0,3.352,59.11,8,1.03,11,2025-10-09,16:42:31,24.15014817,120.70242967,134.6,3.537,94.18,7,1.81,12,2025-10-09,16:42:31,24.150204,120.7024645,130.5,2.593,107.35,8,1.02,13,219.41,224.98,49.20,21.82,22.68,17.99,100.19,104.14,82.61,2025-10-09T16:42:36.094468
2025-10-09,16:42:31,24.14996467,120.702717,206.4,3.778,79.99,8,1.03,11,2025-10-09,16:42:31,24.15014883,120.702432,134.5,3.815,92.3,7,1.81,12,2025-10-09,16:42:31,24.150204,120.7024645,130.4,2.593,107.35,8,1.02,13,173.00,261.54,134.98,20.21,20.61,19.72,92.79,94.63,90.54,2025-10-09T16:42:36.297460
2025-10-09,16:42:31,24.14996833,120.70271683,206.4,3.982,70.28,8,1.03,11,2025-10-09,16:42:31,24.15014917,120.7024345,134.4,3.945,88.3,7,1.16,12,2025-10-09,16:42:31,24.15020417,120.7024665,130.3,2.222,94.45,8,1.02,13,219.41,59.04,192.63,19.80,18.71,17.35,90.91,85.91,79.65,2025-10-09T16:42:36.499540
2025-10-09,16:42:31,24.14997117,120.70271683,205.5,4.223,67.67,8,1.03,11,2025-10-09,16:42:31,24.15014883,120.70243733,134.4,4.519,89.94,7,1.16,12,2025-10-09,16:42:31,24.15020317,120.70246883,130.4,2.815,101.31,8,1.02,13,337.53,129.35,268.57,18.47,19.60,19.86,84.83,90.01,91.19,2025-10-09T16:42:36.701827
2025-10-09,16:42:31,24.14997317,120.70271717,204.6,4.593,71.38,8,1.03,11,2025-10-09,16:42:31,24.15014883,120.70244033,134.4,4.704,89.29,7,1.16,12,2025-10-09,16:42:31,24.150204,120.70247117,130.5,3.963,84.08,8,1.02,13,30.97,184.20,352.95,18.87,21.76,18.53,86.64,99.90,85.07,2025-10-09T16:42:36.903861
2025-10-09,16:42:32,24.14997467,120.7027175,203.8,4.686,75.85,8,1.03,11,2025-10-09,16:42:32,24.15015017,120.70244283,134.5,4.537,82.08,7,1.16,12,2025-10-09,16:42:32,24.15020383,120.7024735,130.6,4.297,83.82,8,1.02,13,87.22,122.33,82.95,19.42,17.37,20.30,89.19,79.74,93.23,2025-10-09T16:42:37.106060
2025-10-09,16:42:32,24.149977,120.70271817,203.0,5.037,75.48,8,1.03,11,2025-10-09,16:42:32,24.15015,120.702446,134.4,4.741,82.68,7,1.16,12,2025-10-09,16:42:32,24.15020333,120.70247583,130.6,4.556,89.37,8,1.02,13,174.41,324.83,196.85,19.00,17.71,21.44,87.24,81.31,98.45,2025-10-09T16:42:37.308572
2025-10-09,16:42:32,24.14997883,120.7027195,201.3,6.093,79.5,8,1.03,11,2025-10-09,16:42:32,24.15015017,120.7024495,134.5,5.741,83.71,7,1.16,12,2025-10-09,16:42:32,24.15020383,120.70247883,130.6,5.186,84.56,8,1.02,13,345.97,157.48,275.60,18.46,20.71,22.99,84.78,95.09,105.59,2025-10-09T16:42:37.510601
2025-10-09,16:42:32,24.14998083,120.7027215,201.3,7.019,80.79,8,1.03,11,2025-10-09,16:42:32,24.150151,120.70245333,134.4,6.575,80.71,7,1.16,12,2025-10-09,16:42:32,24.15020383,120.70248233,130.6,5.945,83.31,8,1.02,13,189.88,345.93,7.00,23.02,19.46,18.82,105.69,89.36,86.43,2025-10-09T16:42:37.713150
2025-10-09,16:42:32,24.14998033,120.70272433,200.4,7.89,89.44,8,1.03,11,2025-10-09,16:42:32,24.150152,120.70245767,134.4,7.667,78.96,7,1.16,12,2025-10-09,16:42:32,24.15020367,120.7024865,130.7,7.371,83.8,8,1.02,13,111.13,340.31,66.06,20.05,18.53,20.62,92.05,85.09,94.69,2025-10-09T16:42:37.915461
2025-10-09,16:42:32,24.14998033,120.70272433,199.7,7.89,89.44,8,1.03,11,2025-10-09,16:42:33,24.15015183,120.70246233,134.4,8.038,80.88,7,1.16,12,2025-10-09,16:42:33,24.150203,120.70249133,130.7,8.445,87.32,8,1.02,13,206.75,209.53,120.90,20.69,19.68,21.71,94.99,90.36,99.68,2025-10-09T16:42:38.117467
2025-10-09,16:42:33,24.149983,120.70273083,198.3,9.13,90.09,8,1.03,11,2025-10-09,16:42:33,24.150151,120.70246767,134.4,8.76,86.06,7,1.16,12,2025-10-09,16:42:33,24.15020267,120.70249633,130.6,9.056,87.91,8,1.02,13,243.31,130.78,210.90,19.66,21.88,18.67,90.26,100.49,85.74,2025-10-09T16:42:38.319544
2025-10-09,16:42:33,24.14998467,120.70273433,197.4,9.353,89.18,8,1.03,11,2025-10-09,16:42:33,24.150151,120.70246767,134.4,8.76,86.06,7,1.16,12,2025-10-09,16:42:33,24.15020217,120.702502,130.4,9.779,90.89,8,1.02,13,303.78,74.53,274.19,17.97,19.61,19.03,82.51,90.05,87.37,2025-10-09T16:42:38.522769
2025-10-09,16:42:33,24.14998683,120.70273817,196.7,10.353,88.04,8,1.03,11,2025-10-09,16:42:33,24.15015167,120.70247917,134.4,10.205,87.57,7,1.16,12,2025-10-09,16:42:33,24.15020167,120.7025065,130.3,8.778,91.78,8,1.02,13,29.56,53.44,354.34,23.49,20.58,20.55,107.85,94.48,94.35,2025-10-09T16:42:38.724601
2025-10-09,16:42:33,24.14998733,120.70274267,196.2,10.63,88.89,8,1.03,11,2025-10-09,16:42:33,24.150151,120.7024855,134.3,10.575,90.16,7,1.16,12,2025-10-09,16:42:33,24.15020167,120.70251033,130.3,7.704,91.54,8,1.02,13,56.28,47.81,68.87,18.75,18.24,19.86,86.08,83.77,91.19,2025-10-09T16:42:38.926688
2025-10-09,16:42:34,24.14998767,120.70274767,196.2,11.186,90.55,8,1.03,11,2025-10-09,16:42:34,24.15014967,120.702492,134.3,11.168,94.18,8,1.02,12,2025-10-09,16:42:34,24.15020117,120.70251433,130.1,7.352,92.92,8,1.02,13,167.38,333.28,126.52,19.50,20.66,19.61,89.52,94.86,90.03,2025-10-09T16:42:39.129201
2025-10-09,16:42:34,24.14998933,120.70275217,195.6,11.26,89.98,8,1.03,11,2025-10-09,16:42:34,24.15014933,120.70249817,134.2,11.038,93.67,8,1.02,12,2025-10-09,16:42:34,24.150201,120.70251717,129.9,5.945,93.18,8,1.02,13,165.97,267.19,196.84,19.72,18.00,19.80,90.53,82.65,90.93,2025-10-09T16:42:39.331781
2025-10-09,16:42:34,24.14999267,120.7027565,195.1,11.131,84.6,8,1.03,11,2025-10-09,16:42:34,24.15014817,120.70250433,134.1,11.186,95.33,8,1.02,12,2025-10-09,16:42:34,24.150202,120.70252317,129.9,7.945,90.42,8,1.02,13,167.38,246.09,269.96,24.01,16.95,17.54,110.27,77.83,80.54,2025-10-09T16:42:39.534094
2025-10-09,16:42:34,24.14999467,120.70276117,194.6,11.353,83.36,8,1.03,11,2025-10-09,16:42:34,24.150147,120.7025105,133.9,10.871,95.83,8,1.02,12,2025-10-09,16:42:34,24.15020633,120.70252333,129.4,3.463,89.08,8,1.02,13,167.38,12.66,352.94,19.57,16.15,17.78,89.87,74.18,81.63,2025-10-09T16:42:39.736603
2025-10-09,16:42:34,24.14999633,120.7027655,194.0,10.982,83.89,8,1.03,11,2025-10-09,16:42:34,24.15014667,120.70251633,133.9,10.723,94.27,8,1.02,12,2025-10-09,16:42:34,24.15020617,120.7025285,127.2,7.315,81.83,8,1.02,13,184.25,142.03,81.53,21.68,18.99,19.71,99.54,87.20,90.53,2025-10-09T16:42:39.938792
2025-10-09,16:42:35,24.14999767,120.70277033,193.4,10.927,86.14,8,1.03,11,2025-10-09,16:42:35,24.15014633,120.702522,133.6,10.149,91.92,8,1.02,12,2025-10-09,16:42:35,24.15020583,120.70253433,126.8,9.186,84.63,8,1.1,13,354.41,37.96,178.56,18.83,18.11,20.96,86.45,83.17,96.25,2025-10-09T16:42:40.141078
2025-10-09,16:42:35,24.14999933,120.70277533,192.8,11.168,86.29,8,1.03,11,2025-10-09,16:42:35,24.1501455,120.70252683,133.4,8.834,90.73,8,1.02,12,2025-10-09,16:42:35,24.15020617,120.70254,126.6,9.797,83.98,8,1.1,13,319.25,334.68,258.71,20.87,20.78,18.75,95.85,95.43,86.10,2025-10-09T16:42:40.342540
2025-10-09,16:42:35,24.14999933,120.70277533,192.2,11.168,86.29,8,1.03,11,2025-10-09,16:42:35,24.1501455,120.70252683,133.7,8.834,90.73,8,1.02,12,2025-10-09,16:42:35,24.15020583,120.70254567,126.4,10.149,84.66,8,1.1,13,11.28,298.12,323.40,15.98,19.02,22.55,73.39,87.36,103.53,2025-10-09T16:42:40.545466
2025-10-09,16:42:35,24.150001,120.70278017,191.7,10.982,85.89,8,1.03,11,2025-10-09,16:42:35,24.1501445,120.70253817,133.7,10.205,91.29,8,1.02,12,2025-10-09,16:42:35,24.150205,120.70255167,126.2,10.353,87.11,8,1.1,13,109.72,296.72,28.09,19.08,14.82,20.16,87.62,68.06,92.57,2025-10-09T16:42:40.747483
2025-10-09,16:42:35,24.150002,120.702785,191.2,11.112,87.6,8,1.03,11,2025-10-09,16:42:35,24.1501445,120.70253817,133.6,10.205,91.29,8,1.81,12,2025-10-09,16:42:35,24.150205,120.70255767,126.0,10.742,86.98,8,1.1,13,178.63,267.19,109.65,19.80,20.98,21.48,90.90,96.36,98.64,2025-10-09T16:42:40.949851
2025-10-09,16:42:35,24.15000283,120.70279,190.7,11.019,88.11,8,1.03,11,2025-10-09,16:42:35,24.15014533,120.70254467,133.6,11.093,88.69,8,1.81,12,2025-10-09,16:42:35,24.150205,120.70255767,125.8,10.742,86.98,8,1.1,13,32.38,181.41,239.02,18.35,21.61,20.27,84.27,99.22,93.09,2025-10-09T16:42:41.152132
2025-10-09,16:42:36,24.15000367,120.70279483,190.2,10.816,89.15,8,1.03,11,2025-10-09,16:42:36,24.150145,120.702551,133.4,11.168,90.0,7,1.81,12,2025-10-09,16:42:36,24.1502055,120.70256283,125.8,9.908,85.28,8,1.02,13,303.78,262.96,11.21,22.37,17.50,19.42,102.72,80.36,89.17,2025-10-09T16:42:41.354772
2025-10-09,16:42:36,24.15000533,120.70279983,190.2,10.927,86.8,8,1.03,11,2025-10-09,16:42:36,24.15014467,120.70255717,133.4,11.075,90.77,7,1.81,12,2025-10-09,16:42:36,24.150207,120.7025675,125.8,9.538,80.35,8,1.02,13,78.78,198.28,171.53,21.37,18.91,19.53,98.12,86.82,89.69,2025-10-09T16:42:41.557545
2025-10-09,16:42:36,24.15000767,120.70280433,189.8,10.39,83.31,8,1.03,11,2025-10-09,16:42:36,24.1501445,120.70256283,133.3,10.427,91.17,7,1.1,12,2025-10-09,16:42:36,24.15020883,120.70257183,125.9,9.149,73.87,8,1.02,11,74.56,244.68,296.69,16.77,21.50,18.71,77.00,98.73,85.90,2025-10-09T16:42:41.760148
2025-10-09,16:42:36,24.15000983,120.702809,189.4,10.482,81.08,8,1.03,11,2025-10-09,16:42:36,24.15014417,120.70256867,133.3,10.26,90.9,8,0.97,12,2025-10-09,16:42:36,24.15021,120.7025765,125.6,8.778,71.87,8,1.02,11,73.16,314.99,87.15,22.08,22.27,18.31,101.39,102.25,84.08,2025-10-09T16:42:41.962535
2025-10-09,16:42:36,24.15001233,120.7028135,188.9,9.982,77.61,8,1.03,11,2025-10-09,16:42:36,24.150144,120.70257383,133.3,9.445,89.41,8,0.97,12,2025-10-09,16:42:36,24.15021383,120.70257867,124.6,8.019,60.38,8,1.02,11,309.41,7.03,195.44,19.40,21.26,21.74,89.08,97.61,99.83,2025-10-09T16:42:42.164930
2025-10-09,16:42:37,24.150015,120.7028175,188.4,9.519,73.82,8,1.03,11,2025-10-09,16:42:37,24.15014517,120.70257883,133.4,9.334,84.84,8,0.97,12,2025-10-09,16:42:37,24.1502165,120.70258217,123.3,7.427,54.77,8,1.02,11,347.38,40.77,30.90,18.47,18.50,21.21,84.83,84.93,97.37,2025-10-09T16:42:42.366209
2025-10-09,16:42:37,24.15001833,120.70282117,188.0,9.279,69.5,8,1.03,11,2025-10-09,16:42:37,24.15014467,120.70258433,133.4,9.297,84.98,8,0.97,12,2025-10-09,16:42:37,24.15021833,120.70259267,123.3,8.501,66.34,8,1.02,11,146.28,104.05,191.22,16.42,19.71,23.23,75.39,90.52,106.67,2025-10-09T16:42:42.569269
2025-10-09,16:42:37,24.15002167,120.70282517,187.6,9.445,67.03,8,1.03,11,2025-10-09,16:42:37,24.15014333,120.70258983,133.6,9.556,89.89,8,0.97,12,2025-10-09,16:42:37,24.150218,120.702598,122.8,8.797,74.84,8,1.02,11,282.69,278.43,265.75,19.80,17.21,18.49,90.93,79.02,84.88,2025-10-09T16:42:42.770890
2025-10-09,16:42:37,24.15002633,120.7028275,186.9,9.093,57.31,8,1.03,11,2025-10-09,16:42:37,24.15014317,120.702595,133.5,9.204,89.02,8,0.97,12,2025-10-09,16:42:37,24.150218,120.702598,122.7,8.797,74.84,8,1.02,11,149.10,133.58,23.88,20.92,14.87,17.95,96.08,68.26,82.40,2025-10-09T16:42:42.973685
2025-10-09,16:42:37,24.15002983,120.7028305,186.9,8.945,54.3,8,1.03,11,2025-10-09,16:42:37,24.15014317,120.70260017,133.9,9.13,86.78,9,0.97,12,2025-10-09,16:42:37,24.1502185,120.70260333,122.5,9.019,77.86,8,1.02,11,345.97,233.42,127.94,21.54,20.87,23.46,98.92,95.84,107.73,2025-10-09T16:42:43.176558
2025-10-09,16:42:38,24.150033,120.70283383,186.6,9.093,54.28,8,1.03,11,2025-10-09,16:42:38,24.1501425,120.7026115,133.9,9.649,86.3,9,0.97,12,2025-10-09,16:42:38,24.15021883,120.70260833,122.6,9.167,79.26,8,1.02,11,112.53,206.71,191.22,16.91,19.46,17.19,77.64,89.36,78.92,2025-10-09T16:42:43.378780
2025-10-09,16:42:38,24.150037,120.70283783,186.2,10.519,53.47,8,1.03,11,2025-10-09,16:42:38,24.1501425,120.7026115,133.3,9.649,86.3,9,0.85,12,2025-10-09,16:42:38,24.1502195,120.7026185,122.6,9.316,80.26,8,1.02,11,105.50,170.15,265.75,15.42,19.86,18.80,70.82,91.19,86.32,2025-10-09T16:42:43.581414
2025-10-09,16:42:38,24.1500395,120.70284233,185.6,10.779,57.41,8,0.98,11,2025-10-09,16:42:38,24.15014133,120.70261733,132.9,9.89,85.52,9,0.85,12,2025-10-09,16:42:38,24.15021933,120.70262467,122.6,10.501,80.5,8,1.02,11,288.31,143.43,261.53,18.83,17.94,20.53,86.46,82.36,94.27,2025-10-09T16:42:43.783950
2025-10-09,16:42:38,24.1500405,120.70284717,185.3,10.779,62.94,8,0.98,11,2025-10-09,16:42:38,24.15014067,120.70262267,132.9,9.408,83.43,9,0.85,12,2025-10-09,16:42:38,24.15021883,120.70263083,122.6,10.742,82.3,8,1.02,11,137.85,163.12,247.47,18.38,21.24,22.01,84.41,97.52,101.06,2025-10-09T16:42:43.986177
2025-10-09,16:42:38,24.15003933,120.70285267,184.9,11.093,77.28,8,0.98,11,2025-10-09,16:42:39,24.15013833,120.702635,132.9,11.038,83.27,9,0.85,12,2025-10-09,16:42:39,24.15021833,120.7026375,122.5,11.297,83.13,8,1.02,11,243.31,293.90,253.09,20.66,16.96,17.95,94.85,77.86,82.44,2025-10-09T16:42:44.188723
2025-10-09,16:42:39,24.15004283,120.7028635,184.5,12.371,79.44,8,0.98,11,2025-10-09,16:42:39,24.15013783,120.70264233,131.9,12.26,82.38,9,0.85,12,2025-10-09,16:42:39,24.150218,120.70264467,122.5,11.853,82.27,8,1.02,11,198.31,330.46,265.75,18.70,19.51,18.35,85.88,89.59,84.26,2025-10-09T16:42:44.391113
2025-10-09,16:42:39,24.150044,120.70286933,184.5,12.131,79.08,8,0.98,11,2025-10-09,16:42:39,24.15013717,120.70264933,131.9,12.464,82.9,9,0.85,12,2025-10-09,16:42:39,24.15021717,120.70265183,122.5,12.168,82.37,8,1.02,11,68.94,149.05,233.41,19.38,19.25,19.29,88.97,88.40,88.59,2025-10-09T16:42:44.593661
2025-10-09,16:42:39,24.15004367,120.702876,183.8,12.501,81.64,8,0.98,11,2025-10-09,16:42:39,24.15013633,120.70265667,131.4,12.575,84.0,9,1.02,12,2025-10-09,16:42:39,24.15021667,120.70265933,122.5,12.464,82.7,8,1.02,11,353.00,35.15,98.42,18.27,20.42,19.47,83.88,93.77,89.40,2025-10-09T16:42:44.796664
2025-10-09,16:42:39,24.1500425,120.70288317,183.6,12.89,82.67,8,0.98,11,2025-10-09,16:42:39,24.15013583,120.70266383,131.2,12.76,82.72,9,1.02,12,2025-10-09,16:42:39,24.1502165,120.702667,122.5,12.612,81.96,8,1.02,11,344.56,129.36,319.19,19.71,21.28,19.48,90.51,97.71,89.45,2025-10-09T16:42:44.998891
2025-10-09,16:42:40,24.150041,120.70288983,183.4,13.112,82.64,8,1.03,11,2025-10-09,16:42:40,24.15013517,120.70266983,131.1,11.427,80.58,9,1.02,12,2025-10-09,16:42:40,24.150216,120.7026745,122.1,12.612,84.09,8,1.02,11,15.50,239.06,177.16,20.61,20.32,18.47,94.63,93.32,84.81,2025-10-09T16:42:45.201333
2025-10-09,16:42:40,24.1500405,120.7028965,183.2,13.242,82.75,8,1.03,11,2025-10-09,16:42:40,24.150135,120.70267667,131.3,11.908,80.52,9,1.02,12,2025-10-09,16:42:40,24.150216,120.70268233,121.8,12.908,84.45,8,1.02,11,195.50,336.09,319.19,20.06,19.11,18.27,92.09,87.77,83.88,2025-10-09T16:42:45.403071
2025-10-09,16:42:40,24.1500405,120.70290283,183.0,13.112,81.83,8,1.03,11,2025-10-09,16:42:40,24.1501345,120.70268383,131.0,12.501,80.75,9,1.02,12,2025-10-09,16:42:40,24.15021567,120.70269,121.8,13.057,81.85,8,1.02,11,160.35,302.34,112.47,20.67,18.04,21.32,94.92,82.82,97.89,2025-10-09T16:42:45.604870
2025-10-09,16:42:40,24.15004,120.70290983,182.6,13.316,81.46,8,1.03,11,2025-10-09,16:42:40,24.150134,120.7026915,130.9,12.834,81.34,9,1.1,12,2025-10-09,16:42:40,24.1502155,120.70269783,121.8,13.075,80.4,8,1.02,11,240.50,227.81,229.19,18.23,22.25,20.80,83.72,102.18,95.49,2025-10-09T16:42:45.807982
2025-10-09,16:42:40,24.1500405,120.70291633,182.5,13.149,80.98,8,1.03,11,2025-10-09,16:42:40,24.15013317,120.70269717,130.6,10.964,77.83,9,1.02,12,2025-10-09,16:42:40,24.15021583,120.70270517,121.5,12.371,80.35,8,1.02,11,334.72,21.09,322.01,17.65,23.05,16.71,81.05,105.86,76.75,2025-10-09T16:42:46.010533
2025-10-09,16:42:41,24.15004217,120.70292283,182.2,13.223,80.24,8,1.03,11,2025-10-09,16:42:41,24.15013317,120.70270333,131.0,11.353,71.55,9,1.02,12,2025-10-09,16:42:41,24.15021617,120.70271233,121.0,12.482,81.46,8,1.02,11,7.06,9.84,336.07,19.02,21.29,18.59,87.35,97.74,85.35,2025-10-09T16:42:46.213124
2025-10-09,16:42:41,24.15004433,120.70292933,181.8,13.279,78.54,8,1.03,11,2025-10-09,16:42:41,24.15013317,120.70270333,131.3,11.353,71.55,9,1.02,12,2025-10-09,16:42:41,24.15021733,120.70271867,120.3,12.075,81.25,8,1.02,11,71.75,307.97,9.82,19.12,20.70,19.34,87.82,95.05,88.82,2025-10-09T16:42:46.416172
2025-10-09,16:42:41,24.15004583,120.7029365,181.4,13.76,77.97,8,1.03,11,2025-10-09,16:42:41,24.15013533,120.702709,132.1,12.445,61.0,9,1.02,12,2025-10-09,16:42:41,24.15021733,120.70272633,119.5,13.205,82.5,8,1.02,11,120.97,310.78,40.75,17.43,21.53,17.66,80.05,98.85,81.11,2025-10-09T16:42:46.618179
2025-10-09,16:42:41,24.15004583,120.7029365,181.2,13.76,77.97,8,1.03,11,2025-10-09,16:42:41,24.15013717,120.70271533,132.5,12.52,59.84,9,1.02,12,2025-10-09,16:42:41,24.15021817,120.70273367,119.1,13.223,82.8,8,1.02,11,223.63,19.69,82.95,16.97,20.11,19.09,77.92,92.36,87.65,2025-10-09T16:42:46.820887
2025-10-09,16:42:41,24.150047,120.702944,180.9,14.038,79.23,8,1.03,11,2025-10-09,16:42:41,24.15013817,120.70272283,132.8,13.001,63.4,9,1.02,12,2025-10-09,16:42:41,24.15021933,120.70274133,118.9,13.501,81.79,8,1.02,11,88.63,217.97,170.13,22.54,20.48,18.97,103.51,94.03,87.10,2025-10-09T16:42:47.023259
2025-10-09,16:42:41,24.15004767,120.70295083,180.5,13.927,81.8,8,1.03,11,2025-10-09,16:42:41,24.15013883,120.70272967,132.8,12.112,69.7,9,1.02,12,2025-10-09,16:42:42,24.1502185,120.70275,118.8,14.186,84.28,8,1.02,11,144.88,285.47,320.60,15.54,21.21,21.40,71.36,97.41,98.28,2025-10-09T16:42:47.225334
2025-10-09,16:42:42,24.150049,120.70295817,180.4,14.372,81.6,8,1.03,11,2025-10-09,16:42:42,24.15014033,120.702737,132.7,12.723,73.61,9,1.02,12,2025-10-09,16:42:42,24.15021817,120.70275883,118.9,14.409,86.02,8,1.02,11,146.28,232.03,147.63,19.70,19.69,17.39,90.45,90.41,79.87,2025-10-09T16:42:47.428063
2025-10-09,16:42:42,24.15004983,120.70296583,180.0,14.779,82.76,8,1.03,11,2025-10-09,16:42:42,24.15014067,120.70274467,132.7,12.871,78.5,9,1.02,12,2025-10-09,16:42:42,24.150217,120.70276833,119.0,15.001,87.81,8,1.02,11,52.06,277.03,37.94,16.37,21.61,17.49,75.16,99.22,80.31,2025-10-09T16:42:47.629556
2025-10-09,16:42:42,24.15005,120.70297333,179.8,14.52,84.91,8,1.03,11,2025-10-09,16:42:42,24.15014117,120.70275283,132.8,13.668,80.47,9,1.02,12,2025-10-09,16:42:42,24.1502155,120.70277717,119.7,14.853,90.73,8,1.02,11,136.44,195.47,247.47,16.69,21.14,16.46,76.64,97.09,75.57,2025-10-09T16:42:47.832379
2025-10-09,16:42:42,24.15004967,120.70298033,179.6,14.26,87.62,8,1.03,11,2025-10-09,16:42:42,24.15014167,120.70276083,132.9,13.834,81.0,9,1.02,12,2025-10-09,16:42:42,24.15021483,120.70278617,119.7,15.39,91.39,8,1.02,11,306.60,149.06,144.82,14.26,20.98,20.28,65.48,96.32,93.14,2025-10-09T16:42:48.034191
2025-10-09,16:42:43,24.1500515,120.70299383,179.6,14.186,89.65,8,1.03,11,2025-10-09,16:42:42,24.150143,120.70276783,133.2,13.279,79.8,9,1.02,12,2025-10-09,16:42:43,24.15021483,120.70279433,120.1,14.649,90.73,8,1.02,11,38.00,327.66,352.94,18.58,18.07,24.05,85.32,82.96,110.42,2025-10-09T16:42:48.237534
2025-10-09,16:42:43,24.1500515,120.70299383,178.8,14.186,89.65,8,1.03,11,2025-10-09,16:42:43,24.1501425,120.70278267,133.2,12.964,83.3,9,1.02,12,2025-10-09,16:42:43,24.1502135,120.7028025,120.2,14.131,92.46,8,1.02,11,0.03,350.16,239.04,19.97,18.53,18.90,91.72,85.06,86.76,2025-10-09T16:42:48.439043
2025-10-09,16:42:43,24.15005267,120.703,178.2,13.501,89.22,8,1.03,11,2025-10-09,16:42:43,24.15014217,120.70279017,133.6,13.186,86.05,9,1.02,12,2025-10-09,16:42:43,24.15021283,120.70280983,120.2,13.26,93.0,8,1.02,11,263.00,247.49,168.72,23.01,20.15,19.36,105.68,92.51,88.88,2025-10-09T16:42:48.641625
2025-10-09,16:42:43,24.1500535,120.7030065,178.2,13.983,89.09,8,1.03,11,2025-10-09,16:42:43,24.15014067,120.70279733,133.7,13.075,89.99,9,1.02,12,2025-10-09,16:42:43,24.1502125,120.7028175,120.1,13.594,92.56,8,1.02,11,21.13,127.96,70.29,18.60,19.24,16.66,85.43,88.37,76.48,2025-10-09T16:42:48.843506
2025-10-09,16:42:43,24.15005483,120.70301883,177.5,13.612,91.41,8,1.03,11,2025-10-09,16:42:43,24.15014067,120.702804,134.0,12.668,90.88,9,1.02,12,2025-10-09,16:42:43,24.15021183,120.702825,120.0,13.371,93.23,8,1.02,11,263.00,232.02,49.20,20.26,18.13,19.41,93.02,83.23,89.13,2025-10-09T16:42:49.045596
2025-10-09,16:42:44,24.150058,120.70302433,176.1,13.371,90.09,8,1.03,11,2025-10-09,16:42:43,24.15014067,120.702804,134.2,12.668,90.88,9,1.02,12,2025-10-09,16:42:44,24.15021117,120.70283183,120.0,12.76,93.69,8,1.02,11,201.13,136.40,32.32,16.79,18.99,21.47,77.09,87.18,98.60,2025-10-09T16:42:49.247694
2025-10-09,16:42:44,24.15006083,120.70302883,175.4,12.223,88.14,9,0.85,11,2025-10-09,16:42:44,24.15014,120.702818,134.2,12.705,92.04,9,1.02,12,2025-10-09,16:42:44,24.1502115,120.70283967,120.1,13.557,91.86,8,1.02,11,281.28,230.61,70.29,20.12,22.78,20.83,92.41,104.58,95.66,2025-10-09T16:42:49.449679
2025-10-09,16:42:44,24.1500625,120.70303433,174.9,12.445,87.5,9,0.85,11,2025-10-09,16:42:44,24.1501395,120.70282467,134.5,12.149,92.67,9,1.02,12,2025-10-09,16:42:44,24.150212,120.70284633,120.5,12.742,90.18,8,1.02,11,9.88,307.96,73.10,16.65,20.12,19.95,76.47,92.41,91.63,2025-10-09T16:42:49.651468
2025-10-09,16:42:44,24.150064,120.70304083,174.5,12.538,86.52,9,0.85,11,2025-10-09,16:42:44,24.150139,120.70283183,134.7,12.131,92.53,9,1.02,12,2025-10-09,16:42:44,24.15021183,120.70285367,120.7,12.76,88.8,8,1.02,11,306.60,112.49,97.00,16.14,21.21,17.80,74.11,97.39,81.72,2025-10-09T16:42:49.853679
2025-10-09,16:42:44,24.1500655,120.70304683,174.0,12.353,85.65,9,0.85,11,2025-10-09,16:42:44,24.15013933,120.70283867,135.0,12.205,90.73,9,1.02,12,2025-10-09,16:42:44,24.15021033,120.70286167,120.7,13.52,89.95,8,1.02,11,334.72,84.36,118.10,21.30,18.29,18.75,97.80,84.00,86.08,2025-10-09T16:42:50.055856
2025-10-09,16:42:45,24.15006583,120.70305283,173.5,12.149,86.19,9,0.85,11,2025-10-09,16:42:45,24.15013883,120.7028455,135.1,12.242,90.47,9,1.02,12,2025-10-09,16:42:45,24.15020917,120.70286883,121.1,13.316,92.21,8,1.02,11,0.03,352.96,144.81,17.23,22.18,19.70,79.13,101.86,90.47,2025-10-09T16:42:50.259538
2025-10-09,16:42:45,24.15006667,120.70305917,173.0,12.168,85.97,9,0.85,11,2025-10-09,16:42:45,24.1501395,120.70285267,135.3,12.482,88.62,9,1.02,12,2025-10-09,16:42:45,24.15020883,120.70287533,121.4,12.964,91.92,8,1.02,11,146.28,255.93,147.62,19.28,18.40,21.91,88.54,84.49,100.62,2025-10-09T16:42:50.462735
2025-10-09,16:42:45,24.15006383,120.703068,172.5,13.408,91.81,9,0.85,11,2025-10-09,16:42:45,24.15013967,120.70286017,135.3,13.112,86.86,9,1.02,12,2025-10-09,16:42:45,24.1502085,120.7028825,121.4,13.408,91.32,8,1.02,11,286.91,137.81,156.06,17.65,17.32,21.65,81.07,79.54,99.41,2025-10-09T16:42:50.664069
2025-10-09,16:42:45,24.15006417,120.70307533,171.9,13.557,91.57,9,0.85,11,2025-10-09,16:42:45,24.15013983,120.70286783,135.3,13.446,85.37,9,1.02,12,2025-10-09,16:42:45,24.150208,120.70288967,121.8,13.52,91.24,8,1.02,11,35.19,302.34,202.46,18.71,20.06,19.32,85.92,92.11,88.73,2025-10-09T16:42:50.866601
2025-10-09,16:42:45,24.150066,120.70308183,171.5,13.983,89.84,9,0.85,11,2025-10-09,16:42:45,24.15014067,120.7028755,135.3,13.797,83.47,9,1.02,12,2025-10-09,16:42:45,24.15020617,120.70289717,122.0,13.538,93.14,8,1.02,11,80.19,167.34,288.24,23.33,20.10,21.27,107.12,92.32,97.65,2025-10-09T16:42:51.069144
2025-10-09,16:42:46,24.15006683,120.703089,171.0,14.464,89.01,9,0.85,11,2025-10-09,16:42:46,24.15013967,120.70288367,135.3,14.02,85.63,9,1.02,12,2025-10-09,16:42:46,24.15020433,120.7029055,122.3,14.149,95.57,8,1.02,11,167.38,68.91,4.18,21.61,22.55,18.53,99.24,103.57,85.10,2025-10-09T16:42:51.270988
2025-10-09,16:42:46,24.15006767,120.7030955,170.3,14.205,88.97,9,0.85,11,2025-10-09,16:42:46,24.15013667,120.7028925,135.3,14.816,93.07,9,1.02,12,2025-10-09,16:42:46,24.1502045,120.702914,122.6,14.779,93.69,8,1.02,11,63.31,270.01,39.33,18.88,21.13,19.98,86.69,97.01,91.76,2025-10-09T16:42:51.473167
2025-10-09,16:42:46,24.15006883,120.70310283,169.9,14.279,87.82,9,0.85,11,2025-10-09,16:42:46,24.15013583,120.70290083,135.3,14.668,94.29,9,1.02,12,2025-10-09,16:42:46,24.15020383,120.70292133,123.0,13.983,92.97,8,1.02,11,223.63,61.88,81.52,20.15,21.04,18.33,92.53,96.59,84.15,2025-10-09T16:42:51.675295
2025-10-09,16:42:46,24.15007067,120.7031105,169.2,14.668,85.67,9,0.85,11,2025-10-09,16:42:46,24.15013583,120.70290083,135.3,14.668,94.29,9,1.02,12,2025-10-09,16:42:46,24.15020367,120.70293,123.0,14.594,91.68,8,1.02,11,60.50,312.20,125.11,19.62,17.26,15.43,90.10,79.25,70.87,2025-10-09T16:42:51.877281
2025-10-09,16:42:46,24.15007183,120.70311733,168.6,14.316,85.19,9,0.85,11,2025-10-09,16:42:46,24.150136,120.70290917,135.3,14.483,92.69,9,1.02,12,2025-10-09,16:42:46,24.15020333,120.70293767,123.2,14.001,90.92,8,1.02,11,189.88,199.70,168.70,21.13,20.79,20.62,97.03,95.47,94.68,2025-10-09T16:42:52.079469
2025-10-09,16:42:46,24.15007183,120.70311733,168.0,14.316,85.19,9,0.85,11,2025-10-09,16:42:46,24.15013767,120.7029175,135.4,14.649,88.45,9,1.02,12,2025-10-09,16:42:47,24.15020433,120.7029455,123.4,14.353,88.93,8,1.02,11,147.69,296.73,248.86,17.92,19.12,19.19,82.30,87.78,88.10,2025-10-09T16:42:52.281147
2025-10-09,16:42:47,24.15007433,120.70312433,167.4,14.538,84.27,9,0.85,11,2025-10-09,16:42:47,24.15013867,120.7029255,135.5,14.39,85.77,9,1.02,12,2025-10-09,16:42:47,24.15020467,120.7029525,123.7,13.723,87.37,8,1.02,11,46.44,4.23,307.92,22.75,20.37,19.67,104.48,93.53,90.30,2025-10-09T16:42:52.483238
2025-10-09,16:42:47,24.15007767,120.70313083,166.7,14.26,83.06,9,0.85,11,2025-10-09,16:42:47,24.1501385,120.70293217,135.7,13.631,85.46,9,1.02,12,2025-10-09,16:42:47,24.15020483,120.7029585,124.2,12.816,86.83,8,1.02,11,351.60,8.44,343.08,19.22,19.32,20.84,88.27,88.69,95.68,2025-10-09T16:42:52.685349
2025-10-09,16:42:47,24.15008067,120.70313717,166.1,13.705,82.16,8,1.03,11,2025-10-09,16:42:47,24.1501385,120.70293917,135.8,13.186,86.08,9,1.02,12,2025-10-09,16:42:47,24.150206,120.70296467,124.8,12.26,84.36,8,1.02,11,329.10,33.76,14.02,17.78,18.88,20.32,81.67,86.71,93.31,2025-10-09T16:42:52.887270
2025-10-09,16:42:47,24.15008433,120.703143,165.5,13.483,80.51,8,1.03,11,2025-10-09,16:42:47,24.15014017,120.702946,136.0,13.02,84.18,9,1.02,12,2025-10-09,16:42:47,24.15020617,120.70297083,125.1,11.742,83.4,8,1.02,11,300.97,136.41,51.99,20.86,18.59,15.67,95.78,85.38,71.96,2025-10-09T16:42:53.088293
2025-10-09,16:42:47,24.15008617,120.70314883,165.0,13.186,80.48,8,1.03,11,2025-10-09,16:42:47,24.15014033,120.7029525,136.3,12.557,83.48,9,1.02,12,2025-10-09,16:42:48,24.15020617,120.70297717,125.5,11.371,83.65,8,1.02,11,220.81,187.04,84.33,22.96,20.81,19.44,105.45,95.55,89.25,2025-10-09T16:42:53.291978
2025-10-09,16:42:48,24.15008533,120.70315433,164.9,12.52,83.61,8,1.03,11,2025-10-09,16:42:48,24.15014017,120.70295917,136.4,12.001,84.09,9,1.02,12,2025-10-09,16:42:48,24.15020633,120.7029835,125.9,10.76,83.34,8,1.02,11,208.16,278.44,112.46,20.24,22.30,21.98,92.94,102.38,100.93,2025-10-09T16:42:53.493799
2025-10-09,16:42:48,24.15008917,120.703164,164.9,10.945,85.36,8,1.03,11,2025-10-09,16:42:48,24.15014033,120.70296583,136.4,11.723,85.34,9,1.02,12,2025-10-09,16:42:48,24.150207,120.70298983,126.0,10.797,82.87,8,1.02,11,181.44,262.97,123.71,18.96,20.72,17.43,87.07,95.16,80.04,2025-10-09T16:42:53.695955
2025-10-09,16:42:48,24.1500905,120.70316867,164.2,10.205,84.63,8,0.98,11,2025-10-09,16:42:48,24.15014033,120.70297767,136.4,9.704,86.44,9,1.02,12,2025-10-09,16:42:48,24.150207,120.702996,126.0,10.001,83.61,8,1.02,11,109.72,344.54,154.64,20.66,17.67,18.60,94.88,81.15,85.40,2025-10-09T16:42:53.898120
2025-10-09,16:42:48,24.1500905,120.70316867,163.8,10.205,84.63,8,1.03,11,2025-10-09,16:42:48,24.1501405,120.70298233,136.3,9.056,86.75,9,1.02,12,2025-10-09,16:42:48,24.15020617,120.70300183,125.9,9.075,86.28,8,1.02,11,50.66,135.01,178.56,20.80,18.97,19.20,95.50,87.11,88.17,2025-10-09T16:42:54.100778
2025-10-09,16:42:48,24.15009217,120.703173,163.5,9.445,82.88,8,1.03,11,2025-10-09,16:42:49,24.15014067,120.70298717,136.4,8.278,86.94,9,1.02,12,2025-10-09,16:42:49,24.15020733,120.70300617,125.9,8.538,84.16,8,1.02,11,277.06,132.19,196.84,19.21,17.15,18.34,88.19,78.74,84.21,2025-10-09T16:42:54.302615
2025-10-09,16:42:49,24.15009583,120.70317933,163.5,8.186,79.3,8,1.03,11,2025-10-09,16:42:49,24.15014067,120.70299133,136.4,7.723,86.82,9,1.02,12,2025-10-09,16:42:49,24.15020667,120.70301133,126.0,7.89,86.47,8,1.02,11,216.60,185.62,199.65,16.70,17.23,20.17,76.67,79.14,92.61,2025-10-09T16:42:54.504864
2025-10-09,16:42:49,24.15009733,120.7031825,163.0,7.908,79.88,8,1.03,11,2025-10-09,16:42:49,24.15014067,120.70299133,136.5,7.723,86.82,9,0.85,12,2025-10-09,16:42:49,24.15020683,120.703015,126.2,6.741,85.96,8,1.02,11,156.13,326.25,191.21,21.59,19.66,21.40,99.14,90.27,98.24,2025-10-09T16:42:54.708407
2025-10-09,16:42:49,24.15009833,120.70318533,162.7,7.667,79.56,9,0.85,11,2025-10-09,16:42:49,24.150141,120.70299967,136.5,7.056,86.0,9,0.85,12,2025-10-09,16:42:49,24.15020583,120.70301883,126.5,7.223,88.51,8,1.02,11,94.25,316.41,181.37,17.15,17.32,18.57,78.75,79.55,85.27,2025-10-09T16:42:54.910674
2025-10-09,16:42:49,24.15010033,120.70318833,162.5,7.241,79.12,9,0.85,11,2025-10-09,16:42:49,24.15014133,120.70300367,136.5,6.63,85.47,9,0.85,12,2025-10-09,16:42:49,24.150206,120.70302217,126.7,6.575,87.91,8,1.02,11,327.69,291.09,175.74,19.63,16.89,18.39,90.14,77.55,84.46,2025-10-09T16:42:55.112831
2025-10-09,16:42:50,24.15010167,120.70319117,162.2,6.76,79.55,9,0.85,11,2025-10-09,16:42:50,24.1501415,120.70300717,136.5,6.371,84.89,9,0.85,12,2025-10-09,16:42:50,24.15020683,120.7030255,126.7,5.797,84.77,8,1.02,11,272.85,264.37,172.93,18.21,18.24,19.27,83.63,83.74,88.47,2025-10-09T16:42:55.314636
2025-10-09,16:42:50,24.15010167,120.70319417,161.5,6.408,83.44,9,0.85,11,2025-10-09,16:42:50,24.15014167,120.70301067,136.5,6.612,85.63,9,0.85,12,2025-10-09,16:42:50,24.150208,120.703028,126.7,5.389,78.04,8,1.02,11,340.35,36.56,165.90,17.51,20.59,19.91,80.40,94.54,91.42,2025-10-09T16:42:55.515696
2025-10-09,16:42:50,24.15010133,120.70319767,161.1,6.445,90.84,9,0.85,11,2025-10-09,16:42:50,24.15014133,120.7030135,136.6,5.482,87.49,9,0.85,12,2025-10-09,16:42:50,24.15020883,120.70302983,127.1,4.463,72.55,8,1.02,11,305.19,285.46,139.18,16.78,19.70,20.55,77.06,90.47,94.38,2025-10-09T16:42:55.718218
2025-10-09,16:42:50,24.15010167,120.7032,160.7,6.149,96.94,9,0.8,11,2025-10-09,16:42:50,24.15014267,120.70301733,136.7,5.834,83.93,9,1.02,12,2025-10-09,16:42:50,24.1502095,120.70303583,127.5,5.019,74.84,8,1.02,11,59.10,248.91,123.71,17.03,18.22,20.83,78.20,83.65,95.64,2025-10-09T16:42:55.920465
2025-10-09,16:42:50,24.15010267,120.70320033,160.9,4.778,97.47,9,0.8,11,2025-10-09,16:42:50,24.150144,120.7030205,136.7,5.667,79.7,9,1.02,12,2025-10-09,16:42:51,24.15020967,120.70303967,127.6,4.037,75.35,8,1.02,11,250.35,5.62,42.15,17.78,19.63,16.99,81.65,90.13,78.03,2025-10-09T16:42:56.122952
2025-10-09,16:42:51,24.15010367,120.70320267,160.6,5.834,98.4,9,0.8,11,2025-10-09,16:42:51,24.1501435,120.70302433,136.7,5.778,81.59,9,1.0,12,2025-10-09,16:42:51,24.15020783,120.70304033,127.1,2.482,81.75,8,1.02,11,215.19,351.56,305.11,23.73,19.40,19.99,108.95,89.07,91.78,2025-10-09T16:42:56.324976
2025-10-09,16:42:51,24.150106,120.70320383,160.4,5.112,96.58,9,0.8,11,2025-10-09,16:42:51,24.1501435,120.7030275,136.7,5.074,82.97,9,1.0,12,2025-10-09,16:42:51,24.1502075,120.70304217,127.4,2.574,91.72,8,1.02,11,327.69,357.19,224.96,17.21,21.54,19.03,79.04,98.91,87.38,2025-10-09T16:42:56.525986
2025-10-09,16:42:51,24.1501085,120.70320533,160.2,5.241,93.99,9,0.8,11,2025-10-09,16:42:51,24.150143,120.70303067,136.8,4.982,86.27,9,1.0,12,2025-10-09,16:42:51,24.1502075,120.70304217,127.5,2.574,91.72,8,1.02,11,312.22,120.94,106.84,18.84,19.86,21.98,86.52,91.21,100.94,2025-10-09T16:42:56.728699
2025-10-09,16:42:51,24.15011,120.7032075,159.8,5.112,92.19,9,0.85,11,2025-10-09,16:42:51,24.15014333,120.703034,136.7,4.982,85.41,9,1.0,12,2025-10-09,16:42:51,24.15020633,120.70304533,127.3,3.723,101.8,8,1.02,11,216.60,36.56,344.49,24.81,20.57,20.26,113.94,94.44,93.04,2025-10-09T16:42:56.930733
2025-10-09,16:42:51,24.150111,120.70320933,159.6,4.908,88.73,9,0.85,11,2025-10-09,16:42:51,24.15014283,120.70303783,136.6,5.445,89.75,9,1.0,12,2025-10-09,16:42:51,24.15020517,120.70304833,127.0,3.667,106.15,8,1.02,11,92.85,167.34,201.06,18.69,20.27,17.35,85.83,93.07,79.68,2025-10-09T16:42:57.132826
2025-10-09,16:42:52,24.150112,120.70321167,159.4,5.445,87.77,9,0.85,11,2025-10-09,16:42:52,24.15014233,120.70304167,136.6,5.056,94.73,9,1.0,13,2025-10-09,16:42:52,24.1502045,120.70305117,127.0,3.704,108.24,8,1.02,11,105.50,251.72,1.37,17.01,19.17,18.72,78.10,88.02,85.94,2025-10-09T16:42:57.334893
2025-10-09,16:42:52,24.150113,120.70321383,159.2,5.334,87.53,9,0.85,11,2025-10-09,16:42:52,24.15014317,120.70304383,136.4,3.741,95.42,9,1.0,13,2025-10-09,16:42:52,24.15020383,120.70305417,126.9,4.389,107.64,8,1.02,11,15.50,258.75,143.40,21.26,20.50,19.08,97.61,94.15,87.61,2025-10-09T16:42:57.536563
2025-10-09,16:42:52,24.15011383,120.70321583,159.2,5.223,89.31,9,0.85,11,2025-10-09,16:42:52,24.15014417,120.70304633,136.3,4.297,91.32,9,1.02,13,2025-10-09,16:42:52,24.15020367,120.70305583,126.8,3.204,105.29,8,1.02,11,338.94,269.99,285.43,17.51,21.36,17.23,80.40,98.10,79.14,2025-10-09T16:42:57.739096
2025-10-09,16:42:52,24.1501155,120.70321633,158.9,4.074,90.52,9,0.85,11,2025-10-09,16:42:52,24.15014517,120.70304833,136.4,3.852,87.69,9,1.02,13,2025-10-09,16:42:52,24.150203,120.7030565,126.9,2.074,105.29,8,1.02,11,309.41,113.90,57.62,17.97,21.04,18.55,82.51,96.60,85.18,2025-10-09T16:42:57.941305
2025-10-09,16:42:52,24.15011667,120.70321833,158.9,4.519,92.86,9,0.85,11,2025-10-09,16:42:52,24.15014567,120.703051,136.5,4.315,85.49,9,1.02,13,2025-10-09,16:42:52,24.150203,120.70305917,127.0,2.797,102.47,8,1.02,11,163.16,267.18,181.37,20.59,21.32,19.30,94.55,97.90,88.61,2025-10-09T16:42:58.143399
2025-10-09,16:42:53,24.1501185,120.70322017,158.6,4.704,91.84,9,0.8,11,2025-10-09,16:42:52,24.15014567,120.703051,136.5,4.315,85.49,9,1.02,13,2025-10-09,16:42:53,24.15020283,120.70306367,127.0,4.482,98.06,8,1.02,11,348.78,68.90,333.25,20.70,19.77,21.54,95.06,90.80,98.91,2025-10-09T16:42:58.345552
2025-10-09,16:42:53,24.15011983,120.70322167,158.4,4.408,91.83,9,0.8,11,2025-10-09,16:42:53,24.15014667,120.7030565,136.5,4.482,82.62,9,1.02,13,2025-10-09,16:42:53,24.150202,120.70306683,127.1,4.889,99.6,8,1.02,11,135.03,5.61,67.47,19.37,22.14,21.64,88.94,101.68,99.38,2025-10-09T16:42:58.548066
2025-10-09,16:42:53,24.15012167,120.70322367,158.2,4.556,88.66,9,0.8,11,2025-10-09,16:42:53,24.15014733,120.7030585,136.5,3.963,83.1,9,1.02,13,2025-10-09,16:42:53,24.15020133,120.7030735,127.1,4.186,94.86,8,1.02,11,45.03,5.61,143.41,17.61,16.43,21.32,80.86,75.45,97.89,2025-10-09T16:42:58.750181
2025-10-09,16:42:53,24.15012333,120.70322517,157.9,4.519,86.53,9,0.8,11,2025-10-09,16:42:53,24.150147,120.703061,136.6,4.074,86.46,9,1.02,13,2025-10-09,16:42:53,24.15020083,120.70307717,126.7,4.445,93.11,8,1.02,11,32.38,170.15,178.57,22.39,22.10,20.29,102.79,101.46,93.17,2025-10-09T16:42:58.952608
2025-10-09,16:42:53,24.1501245,120.70322667,157.8,4.297,89.35,9,0.8,11,2025-10-09,16:42:53,24.15014667,120.70306333,136.6,4.111,90.64,9,1.02,13,2025-10-09,16:42:54,24.15020133,120.70307867,126.7,3.185,89.23,8,1.02,11,312.22,132.17,230.60,19.21,22.94,15.37,88.22,105.34,70.57,2025-10-09T16:42:59.153945
2025-10-09,16:42:54,24.1501255,120.70322733,157.6,3.648,95.92,9,0.8,11,2025-10-09,16:42:54,24.1501455,120.70306583,136.7,4.352,98.87,9,1.02,13,2025-10-09,16:42:54,24.15020117,120.7030815,126.9,3.574,89.18,8,1.02,11,26.75,142.02,244.66,20.34,20.59,18.99,93.41,94.56,87.22,2025-10-09T16:42:59.356978
2025-10-09,16:42:54,24.150128,120.70322817,157.6,3.574,92.27,9,0.8,11,2025-10-09,16:42:54,24.15014567,120.7030675,136.8,3.834,98.93,9,1.16,13,2025-10-09,16:42:54,24.15020117,120.7030815,126.7,3.574,89.18,8,1.02,11,357.22,28.11,271.38,14.68,19.82,20.05,67.43,90.99,92.09,2025-10-09T16:42:59.559115
2025-10-09,16:42:54,24.15012967,120.703229,157.6,3.741,90.7,9,0.8,11,2025-10-09,16:42:54,24.15014433,120.70306983,136.9,4.278,107.06,9,1.16,13,2025-10-09,16:42:54,24.15020017,120.70308633,126.7,2.908,93.23,8,1.02,11,324.88,23.89,313.57,22.11,18.33,17.82,101.55,84.17,81.84,2025-10-09T16:42:59.761721
2025-10-09,16:42:54,24.1501315,120.70322933,157.3,3.204,94.6,9,0.8,11,2025-10-09,16:42:54,24.150144,120.70307267,136.6,4.056,104.71,9,1.16,13,2025-10-09,16:42:54,24.1502005,120.7030885,126.4,3.0,92.7,8,1.02,11,233.47,154.67,330.44,15.90,17.73,20.04,73.00,81.41,92.01,2025-10-09T16:42:59.963826
2025-10-09,16:42:54,24.150133,120.7032305,157.0,3.704,94.42,9,0.8,11,2025-10-09,16:42:54,24.15014317,120.70307567,136.6,4.26,105.23,9,1.16,13,2025-10-09,16:42:55,24.15020067,120.70309067,126.4,3.019,91.59,8,1.02,11,156.13,352.95,331.85,18.32,18.33,19.49,84.13,84.17,89.49,2025-10-09T16:43:00.165941
2025-10-09,16:42:55,24.15013517,120.703231,156.9,3.167,88.28,9,0.8,11,2025-10-09,16:42:55,24.15014417,120.70307633,137.0,2.852,106.81,9,1.16,13,2025-10-09,16:42:55,24.150204,120.70309033,126.5,3.111,53.1,8,1.02,11,208.16,21.07,247.48,20.77,19.68,22.40,95.37,90.38,102.88,2025-10-09T16:43:00.368001
2025-10-09,16:42:55,24.15013717,120.70323167,156.8,3.315,90.49,9,0.8,11,2025-10-09,16:42:55,24.150144,120.7030795,136.9,4.204,101.09,9,1.16,13,2025-10-09,16:42:55,24.15020567,120.7030915,127.1,3.426,42.98,8,1.02,11,92.85,150.44,40.76,20.98,19.54,20.96,96.34,89.72,96.23,2025-10-09T16:43:00.570198
2025-10-09,16:42:55,24.1501385,120.7032325,156.6,3.685,93.18,9,0.8,11,2025-10-09,16:42:55,24.15014367,120.70308183,137.0,4.148,101.96,9,1.16,13,2025-10-09,16:42:55,24.15020917,120.70309183,127.1,4.315,29.08,8,1.02,12,73.16,248.88,49.20,20.10,18.18,19.63,92.28,83.47,90.14,2025-10-09T16:43:00.772282
2025-10-09,16:42:55,24.15014083,120.703233,156.4,3.389,93.76,9,0.8,11,2025-10-09,16:42:55,24.15014283,120.70308433,137.3,4.426,106.21,9,1.16,13,2025-10-09,16:42:55,24.1502115,120.703094,127.1,4.982,27.42,8,1.02,12,275.66,101.22,264.36,18.22,18.86,18.88,83.65,86.61,86.67,2025-10-09T16:43:00.974305
2025-10-09,16:42:55,24.150141,120.703234,156.3,3.0,96.22,9,0.85,11,2025-10-09,16:42:55,24.150142,120.70308717,137.4,4.5,106.76,9,1.0,13,2025-10-09,16:42:56,24.1502115,120.7030965,127.1,3.889,31.67,8,1.15,12,0.03,161.70,345.93,18.59,21.41,21.63,85.36,98.29,99.33,2025-10-09T16:43:01.176455
2025-10-09,16:42:56,24.150142,120.703235,156.3,2.648,90.31,9,0.85,11,2025-10-09,16:42:56,24.1501405,120.70308967,137.4,4.556,110.13,9,1.0,13,2025-10-09,16:42:56,24.15021083,120.70310017,127.0,4.037,50.46,8,1.15,12,331.91,184.19,320.61,21.73,18.85,18.34,99.79,86.54,84.21,2025-10-09T16:43:01.378561
2025-10-09,16:42:56,24.15014417,120.70323433,156.2,2.056,90.31,9,0.85,11,2025-10-09,16:42:56,24.1501405,120.70309167,137.5,4.241,106.66,9,1.0,13,2025-10-09,16:42:56,24.15021033,120.70310267,126.7,3.445,63.58,8,1.15,12,120.97,21.07,215.15,21.53,17.41,21.62,98.84,79.92,99.26,2025-10-09T16:43:01.580286
2025-10-09,16:42:56,24.15014717,120.70323617,156.2,2.667,90.31,9,0.85,11,2025-10-09,16:42:56,24.1501395,120.70309417,137.6,4.26,104.13,9,1.0,13,2025-10-09,16:42:56,24.15021017,120.70310567,126.6,4.0,79.99,8,1.15,12,357.22,350.13,7.03,20.73,19.59,17.90,95.18,89.97,82.18,2025-10-09T16:43:01.782331
2025-10-09,16:42:56,24.15014517,120.703239,156.0,3.667,91.38,9,1.01,11,2025-10-09,16:42:56,24.1501385,120.703097,137.7,4.871,102.72,9,1.0,13,2025-10-09,16:42:56,24.15021033,120.70310917,126.5,4.741,84.29,8,1.15,12,84.41,298.11,44.99,17.93,18.41,21.32,82.32,84.55,97.91,2025-10-09T16:43:01.984914
2025-10-09,16:42:57,24.15014417,120.70324217,156.0,4.926,94.23,9,1.01,11,2025-10-09,16:42:56,24.15013717,120.70310067,137.8,6.038,101.69,9,1.0,13,2025-10-09,16:42:57,24.15020967,120.70311383,126.4,5.723,91.34,8,1.15,12,343.16,201.08,95.62,17.31,16.70,19.38,79.47,76.70,89.00,2025-10-09T16:43:02.186927
2025-10-09,16:42:57,24.15014433,120.7032445,155.9,5.112,95.67,9,0.85,11,2025-10-09,16:42:57,24.15013583,120.7031045,137.9,6.704,103.79,9,1.16,13,2025-10-09,16:42:57,24.15020767,120.703119,126.3,6.834,98.7,8,1.02,12,43.63,181.40,205.31,19.92,19.99,19.47,91.47,91.78,89.42,2025-10-09T16:43:02.389317
2025-10-09,16:42:57,24.150143,120.7032465,155.8,5.352,99.72,9,0.85,11,2025-10-09,16:42:57,24.150135,120.70310767,138.2,6.76,105.07,9,1.16,13,2025-10-09,16:42:57,24.15020767,120.703119,126.0,6.834,98.7,8,1.02,12,105.50,351.55,33.75,19.84,17.47,19.77,91.12,80.22,90.79,2025-10-09T16:43:02.590385
2025-10-09,16:42:57,24.15013983,120.70324917,155.9,6.149,107.99,9,0.85,11,2025-10-09,16:42:57,24.150132,120.70311217,138.2,8.186,111.11,9,1.16,13,2025-10-09,16:42:57,24.15020633,120.7031235,125.9,6.76,105.24,8,1.02,12,84.41,52.02,354.38,17.73,19.95,21.21,81.39,91.59,97.38,2025-10-09T16:43:02.793411
2025-10-09,16:42:57,24.15013983,120.70324917,156.3,6.149,107.99,9,0.95,11,2025-10-09,16:42:57,24.1501295,120.70311617,138.2,8.038,114.81,9,1.16,13,2025-10-09,16:42:57,24.15020433,120.70312783,125.9,7.556,111.22,8,1.02,12,357.22,5.61,97.04,21.04,24.30,22.13,96.61,111.57,101.64,2025-10-09T16:43:02.995611
2025-10-09,16:42:57,24.15013783,120.703253,156.2,7.482,111.64,9,0.8,11,2025-10-09,16:42:57,24.15012433,120.70312083,138.1,9.334,124.07,9,1.16,13,2025-10-09,16:42:57,24.15020067,120.703133,125.8,8.982,120.58,8,1.02,12,237.69,137.80,0.01,21.48,22.08,18.58,98.65,101.41,85.31,2025-10-09T16:43:03.197742
2025-10-09,16:42:58,24.1501355,120.70325517,156.2,6.797,117.35,9,0.8,11,2025-10-09,16:42:58,24.15012067,120.70312417,138.1,9.075,129.74,9,1.16,13,2025-10-09,16:42:58,24.150197,120.70313767,126.1,9.686,125.0,8,1.02,12,106.91,134.98,104.07,18.55,21.83,18.60,85.18,100.24,85.40,2025-10-09T16:43:03.399000
2025-10-09,16:42:58,24.15013233,120.70325833,156.4,8.038,122.55,9,0.8,11,2025-10-09,16:42:58,24.15011567,120.7031275,138.2,9.501,135.36,9,1.16,13,2025-10-09,16:42:58,24.150187,120.703147,126.2,11.038,139.23,8,1.02,12,119.56,274.20,36.56,19.05,18.80,20.53,87.47,86.31,94.28,2025-10-09T16:43:03.601955
2025-10-09,16:42:58,24.1501295,120.703259,156.7,7.186,132.31,9,0.8,11,2025-10-09,16:42:58,24.15011,120.70313167,138.3,10.89,138.87,9,0.93,13,2025-10-09,16:42:58,24.15018067,120.703152,126.0,12.334,144.56,8,1.02,12,174.41,105.45,94.22,23.58,18.26,16.44,108.30,83.83,75.47,2025-10-09T16:43:03.804173
2025-10-09,16:42:58,24.15012783,120.70326083,156.9,6.667,135.47,9,0.8,11,2025-10-09,16:42:58,24.150105,120.70313467,138.4,10.779,143.02,9,0.93,13,2025-10-09,16:42:58,24.150174,120.703156,125.9,12.149,149.6,8,1.02,12,223.63,306.55,291.09,19.00,21.52,18.66,87.26,98.81,85.67,2025-10-09T16:43:04.006110
2025-10-09,16:42:58,24.150122,120.70326333,157.1,7.112,142.56,9,0.8,11,2025-10-09,16:42:58,24.15009967,120.70313817,138.3,11.149,145.68,9,0.93,13,2025-10-09,16:42:59,24.15016333,120.70316033,125.9,13.057,154.97,8,1.02,12,188.47,358.58,219.36,21.44,21.07,23.22,98.47,96.74,106.62,2025-10-09T16:43:04.209623
2025-10-09,16:42:59,24.15011667,120.70326633,157.0,8.093,147.06,9,0.8,11,2025-10-09,16:42:59,24.15009067,120.70314067,138.3,13.02,154.77,9,0.93,13,2025-10-09,16:42:59,24.15015317,120.70316383,125.3,13.594,159.67,8,1.02,12,219.41,81.55,222.18,21.36,21.11,23.07,98.10,96.93,105.94,2025-10-09T16:43:04.411719
2025-10-09,16:42:59,24.15011267,120.7032655,156.9,7.408,153.77,9,0.8,11,2025-10-09,16:42:59,24.15008083,120.7031435,138.2,13.186,159.75,9,1.0,13,2025-10-09,16:42:59,24.15014567,120.70316617,124.9,13.705,164.82,8,1.02,12,154.72,181.39,295.30,21.39,21.29,19.36,98.22,97.78,88.88,2025-10-09T16:43:04.614497
2025-10-09,16:42:59,24.150093,120.70326567,156.7,11.408,174.91,9,0.85,11,2025-10-09,16:42:59,24.1500695,120.70314567,137.4,14.464,165.56,9,1.0,13,2025-10-09,16:42:59,24.15013633,120.70316867,124.9,14.723,169.01,8,1.02,12,173.00,258.73,63.26,20.57,19.35,19.43,94.45,88.85,89.20,2025-10-09T16:43:04.816457
2025-10-09,16:42:59,24.150093,120.70326567,156.6,11.408,174.91,9,0.85,11,2025-10-09,16:42:59,24.15005817,120.7031475,137.1,15.335,169.58,9,1.0,13,2025-10-09,16:42:59,24.15013633,120.70316867,124.8,14.723,169.01,8,1.02,12,316.44,279.83,156.07,19.43,18.72,18.31,89.22,85.97,84.06,2025-10-09T16:43:05.018392
2025-10-09,16:42:59,24.15008017,120.70326533,156.6,13.649,181.32,9,0.85,11,2025-10-09,16:42:59,24.15004783,120.70314867,136.8,16.612,172.58,9,1.0,13,2025-10-09,16:43:00,24.15011533,120.70317017,124.8,17.279,177.35,8,1.02,12,133.63,179.99,253.10,16.74,18.72,19.58,76.88,85.95,89.91,2025-10-09T16:43:05.220716
2025-10-09,16:43:00,24.15004983,120.70326967,156.5,18.372,180.54,9,0.85,11,2025-10-09,16:43:00,24.15003717,120.70314967,136.5,17.65,175.35,9,1.0,13,2025-10-09,16:43:00,24.15010417,120.70317,124.4,18.705,180.87,8,1.15,12,282.69,67.49,275.60,22.16,18.66,19.57,101.76,85.70,89.86,2025-10-09T16:43:05.421476
2025-10-09,16:43:00,24.150035,120.703271,156.1,19.279,180.46,9,0.85,11,2025-10-09,16:43:00,24.15002617,120.70315,136.5,18.668,177.69,9,1.0,13,2025-10-09,16:43:00,24.150093,120.7031705,124.4,19.576,181.8,8,1.15,12,175.81,274.21,278.40,22.48,19.21,19.21,103.23,88.22,88.21,2025-10-09T16:43:05.624623
2025-10-09,16:43:00,24.150035,120.703271,156.0,19.279,180.46,9,0.8,11,2025-10-09,16:43:00,24.15001583,120.7031495,136.3,19.427,180.28,9,0.93,13,2025-10-09,16:43:00,24.15008183,120.70317133,124.4,20.039,181.57,8,1.15,12,175.81,194.06,347.31,18.47,20.00,18.25,84.83,91.86,83.79,2025-10-09T16:43:05.826684
2025-10-09,16:43:00,24.15002117,120.70327167,155.7,20.205,180.22,9,0.8,11,2025-10-09,16:43:00,24.15000533,120.703149,136.2,20.483,181.64,9,0.97,13,2025-10-09,16:43:00,24.15007017,120.703174,124.4,21.224,178.91,8,1.15,12,255.97,158.90,28.09,19.62,19.37,19.88,90.10,88.94,91.28,2025-10-09T16:43:06.028930
2025-10-09,16:43:00,24.15000667,120.70327117,155.8,20.761,180.9,9,0.8,11,2025-10-09,16:43:00,24.14999583,120.70314767,135.9,20.576,183.92,9,0.85,13,2025-10-09,16:43:01,24.150059,120.7031745,124.2,21.52,178.89,8,1.15,12,237.69,134.99,9.81,20.41,22.64,23.69,93.74,103.95,108.77,2025-10-09T16:43:06.231342
2025-10-09,16:43:01,24.14999183,120.703271,155.7,22.02,181.77,9,0.8,11,2025-10-09,16:43:01,24.14998567,120.70314633,135.7,20.891,185.05,9,0.85,13,2025-10-09,16:43:01,24.1500475,120.70317467,124.2,21.965,179.3,8,1.15,12,161.75,161.71,357.15,21.29,18.40,21.45,97.75,84.47,98.50,2025-10-09T16:43:06.433858
2025-10-09,16:43:01,24.14997683,120.703271,155.6,22.113,182.49,9,0.8,11,2025-10-09,16:43:01,24.149962,120.70314533,135.7,22.057,184.25,9,0.85,13,2025-10-09,16:43:01,24.15003567,120.70317433,124.3,22.335,179.82,7,1.34,12,56.28,165.93,345.90,17.98,17.87,18.51,82.56,82.05,85.00,2025-10-09T16:43:06.636041
2025-10-09,16:43:01,24.149962,120.70327183,155.2,22.613,182.5,9,0.85,11,2025-10-09,16:43:01,24.1499495,120.703145,135.5,22.798,183.97,9,1.0,13,2025-10-09,16:43:01,24.15002383,120.70317117,124.4,22.65,182.77,8,1.1,12,61.91,187.03,326.22,18.23,20.59,18.17,83.70,94.53,83.44,2025-10-09T16:43:06.838067
2025-10-09,16:43:01,24.14994683,120.70327167,155.0,23.039,184.23,9,0.85,11,2025-10-09,16:43:01,24.1499365,120.70314483,135.2,22.983,183.22,9,1.1,13,2025-10-09,16:43:01,24.15001217,120.7031685,124.6,22.502,185.21,8,1.1,12,46.44,136.40,299.50,20.86,19.52,18.56,95.76,89.62,85.22,2025-10-09T16:43:07.040767
2025-10-09,16:43:02,24.1499175,120.70327217,154.8,22.928,183.97,9,0.85,11,2025-10-09,16:43:01,24.1499365,120.70314483,135.0,22.983,183.22,9,1.1,13,2025-10-09,16:43:02,24.15000017,120.70316833,124.8,22.854,185.03,8,1.1,12,49.25,112.49,257.31,17.33,17.85,19.91,79.59,81.98,91.40,2025-10-09T16:43:07.243378
2025-10-09,16:43:02,24.14990183,120.7032725,154.4,23.409,183.84,9,1.01,11,2025-10-09,16:43:02,24.14992383,120.7031445,134.7,23.094,182.77,9,1.1,13,2025-10-09,16:43:02,24.14998833,120.70316767,124.9,23.317,184.92,8,1.1,12,178.63,111.09,205.28,18.35,20.00,20.58,84.27,91.84,94.52,2025-10-09T16:43:07.446628
2025-10-09,16:43:02,24.149886,120.70327267,154.0,23.428,183.64,9,1.01,11,2025-10-09,16:43:02,24.1499115,120.70314417,134.3,23.317,182.89,9,1.1,13,2025-10-09,16:43:02,24.1499755,120.703165,124.9,24.095,186.5,8,1.1,12,167.38,18.28,167.31,18.47,20.67,22.93,84.80,94.92,105.30,2025-10-09T16:43:07.649352
2025-10-09,16:43:02,24.1498695,120.70327417,153.7,23.724,182.4,9,1.01,11,2025-10-09,16:43:02,24.149898,120.70314367,134.1,23.669,183.22,9,1.1,13,2025-10-09,16:43:02,24.1499755,120.703165,125.1,24.095,186.5,8,1.02,12,248.94,44.99,99.81,21.59,18.88,19.93,99.12,86.69,91.51,2025-10-09T16:43:07.851422
2025-10-09,16:43:02,24.14985283,120.70327483,153.6,24.187,182.08,9,1.01,11,2025-10-09,16:43:02,24.1498725,120.7031415,134.1,24.057,184.69,9,1.1,13,2025-10-09,16:43:02,24.1499645,120.70316483,125.2,23.261,186.0,8,1.02,13,246.13,345.93,36.52,21.59,21.52,19.61,99.12,98.84,90.05,2025-10-09T16:43:08.053988
2025-10-09,16:43:02,24.14985283,120.70327483,153.5,24.187,182.08,9,1.01,11,2025-10-09,16:43:02,24.1498725,120.7031415,134.1,24.057,184.69,9,0.85,13,2025-10-09,16:43:02,24.14995383,120.7031625,125.3,22.891,187.74,8,1.02,13,300.97,343.12,329.02,18.60,19.22,18.93,85.41,88.24,86.91,2025-10-09T16:43:08.256352
2025-10-09,16:43:03,24.1498385,120.703274,153.3,24.372,182.86,9,0.85,11,2025-10-09,16:43:03,24.1498595,120.70314067,134.1,24.169,184.74,9,0.85,13,2025-10-09,16:43:03,24.1499425,120.70316167,125.4,22.817,187.51,7,1.18,13,298.16,302.34,289.65,19.16,20.75,17.03,87.96,95.30,78.19,2025-10-09T16:43:08.458884
2025-10-09,16:43:03,24.14982267,120.70327267,153.3,24.558,184.3,9,0.85,11,2025-10-09,16:43:03,24.14984667,120.70314,133.9,24.335,184.79,9,0.85,13,2025-10-09,16:43:03,24.1499295,120.70316167,125.4,23.594,186.04,7,1.34,13,324.88,302.34,250.27,20.18,20.05,19.79,92.67,92.05,90.86,2025-10-09T16:43:08.661434
2025-10-09,16:43:03,24.149808,120.70327117,153.3,24.558,185.37,8,0.98,11,2025-10-09,16:43:03,24.1498335,120.70314033,133.8,24.613,183.78,8,1.16,13,2025-10-09,16:43:03,24.149916,120.70316217,125.3,23.891,184.21,7,1.34,13,299.56,12.65,226.37,20.24,18.32,20.84,92.92,84.14,95.72,2025-10-09T16:43:08.864309
2025-10-09,16:43:03,24.149793,120.703271,153.1,25.095,185.02,8,1.02,11,2025-10-09,16:43:03,24.14982017,120.70314017,133.6,25.076,183.33,8,1.16,13,2025-10-09,16:43:03,24.14990283,120.70316267,125.4,24.446,182.61,8,1.16,13,25.35,324.84,151.84,20.06,19.18,20.24,92.12,88.08,92.95,2025-10-09T16:43:09.067594
2025-10-09,16:43:03,24.14977767,120.70327133,153.2,25.539,184.12,8,1.02,11,2025-10-09,16:43:03,24.14980617,120.7031405,133.4,25.539,182.77,8,1.16,13,2025-10-09,16:43:03,24.14989133,120.7031625,125.6,23.872,182.43,8,1.16,13,38.00,45.00,104.03,24.92,20.35,23.40,114.41,93.45,107.46,2025-10-09T16:43:09.269958
2025-10-09,16:43:04,24.14976233,120.70327133,153.5,25.613,183.41,8,1.02,11,2025-10-09,16:43:04,24.14979167,120.70314183,133.6,25.465,181.51,8,1.16,13,2025-10-09,16:43:04,24.14987833,120.703164,125.7,24.78,181.34,8,1.16,13,18.31,270.00,43.56,21.13,19.36,19.47,97.03,88.89,89.42,2025-10-09T16:43:09.471859
2025-10-09,16:43:04,24.14974717,120.70327017,153.7,25.761,183.67,8,1.02,11,2025-10-09,16:43:04,24.14976367,120.70314433,133.4,25.854,179.45,8,1.16,13,2025-10-09,16:43:04,24.14985283,120.70316283,125.7,25.021,182.89,8,1.16,13,67.53,223.59,320.59,16.17,22.97,21.36,74.26,105.46,98.08,2025-10-09T16:43:09.674183
2025-10-09,16:43:04,24.14973217,120.70326967,153.6,25.817,184.05,8,1.16,11,2025-10-09,16:43:04,24.14976367,120.70314433,133.2,25.854,179.45,7,1.16,13,2025-10-09,16:43:04,24.14984017,120.70316317,126.2,25.187,182.48,8,1.02,13,59.10,223.59,265.74,17.56,18.23,20.48,80.65,83.72,94.03,2025-10-09T16:43:09.876568
2025-10-09,16:43:04,24.14971767,120.70326917,153.4,25.854,184.05,8,1.16,11,2025-10-09,16:43:04,24.14975,120.70314567,133.2,25.724,178.75,7,1.16,13,2025-10-09,16:43:04,24.14984017,120.70316317,126.4,25.187,182.48,8,1.02,13,329.10,132.18,215.12,19.61,19.26,22.32,90.07,88.43,102.48,2025-10-09T16:43:10.078611
2025-10-09,16:43:04,24.14970317,120.70327533,153.3,26.243,179.49,8,1.03,11,2025-10-09,16:43:05,24.14972383,120.70314333,133.2,25.465,181.31,7,1.16,13,2025-10-09,16:43:04,24.14982817,120.70316317,126.5,25.206,182.44,8,1.02,13,32.38,177.19,163.09,19.09,19.75,17.32,87.66,90.68,79.54,2025-10-09T16:43:10.280918
2025-10-09,16:43:05,24.14968917,120.7032765,152.8,26.132,178.08,8,1.03,11,2025-10-09,16:43:05,24.1497105,120.70314117,132.3,25.706,183.6,7,1.16,13,2025-10-09,16:43:05,24.14981567,120.70316433,126.4,25.224,181.37,8,1.02,13,7.06,116.72,172.93,19.52,20.19,21.73,89.61,92.70,99.79,2025-10-09T16:43:10.483286
2025-10-09,16:43:05,24.14967517,120.70327717,152.8,26.187,177.59,8,1.03,11,2025-10-09,16:43:05,24.1496975,120.70313883,132.0,25.687,185.27,7,1.16,13,2025-10-09,16:43:05,24.149788,120.7031635,126.4,26.354,182.01,8,1.02,13,236.28,326.24,281.21,18.83,18.77,19.24,86.48,86.17,88.33,2025-10-09T16:43:10.685658
2025-10-09,16:43:05,24.14966083,120.70327617,152.5,26.021,178.47,8,1.03,11,2025-10-09,16:43:05,24.1496975,120.70313883,131.7,25.687,185.27,7,1.21,13,2025-10-09,16:43:05,24.14977533,120.70316,126.5,26.132,184.72,7,1.18,13,143.47,26.71,355.74,16.08,18.56,19.41,73.84,85.22,89.11,2025-10-09T16:43:10.888176
2025-10-09,16:43:05,24.14964583,120.70327617,152.4,26.058,179.14,8,0.98,11,2025-10-09,16:43:05,24.14968467,120.70313983,131.3,25.391,184.32,7,1.21,13,2025-10-09,16:43:05,24.14976083,120.7031585,126.6,27.021,185.95,7,1.18,13,239.10,9.84,350.12,18.20,16.37,18.45,83.59,75.17,84.73,2025-10-09T16:43:11.090426
2025-10-09,16:43:05,24.14963133,120.70327433,152.2,26.058,180.74,8,0.98,11,2025-10-09,16:43:06,24.149657,120.703138,131.3,26.095,184.18,7,1.21,13,2025-10-09,16:43:06,24.1497465,120.70315867,126.7,27.206,185.85,7,1.18,13,284.10,67.49,324.81,19.80,20.53,20.01,90.91,94.25,91.90,2025-10-09T16:43:11.292485
2025-10-09,16:43:06,24.1496165,120.70327233,152.2,26.317,182.48,8,0.98,11,2025-10-09,16:43:06,24.149643,120.70313833,131.0,26.243,183.16,7,1.21,13,2025-10-09,16:43:06,24.14973233,120.70315767,127.0,27.521,186.33,7,1.18,13,282.69,32.34,300.90,19.92,18.58,19.21,91.47,85.34,88.22,2025-10-09T16:43:11.494825
2025-10-09,16:43:06,24.1496015,120.70327133,152.2,26.354,183.47,8,0.98,11,2025-10-09,16:43:06,24.149628,120.70314017,130.8,26.798,180.99,8,1.1,13,2025-10-09,16:43:06,24.14973233,120.70315767,127.2,27.521,186.33,7,1.18,13,317.85,77.34,264.34,16.63,16.30,20.29,76.37,74.84,93.15,2025-10-09T16:43:11.696894
2025-10-09,16:43:06,24.149587,120.70326967,152.2,26.465,184.21,8,0.98,11,2025-10-09,16:43:06,24.14961467,120.703143,131.1,26.354,178.7,8,1.1,13,2025-10-09,16:43:06,24.14970317,120.70315583,127.2,27.298,186.86,7,1.18,11,322.06,109.68,219.34,21.97,20.13,24.24,100.90,92.46,111.30,2025-10-09T16:43:11.899416
2025-10-09,16:43:06,24.14957267,120.70326567,152.2,26.558,186.08,8,0.98,11,2025-10-09,16:43:06,24.14961467,120.703143,130.7,26.354,178.7,8,1.02,13,2025-10-09,16:43:06,24.14968933,120.70315733,127.7,26.984,184.71,7,1.18,11,0.03,75.94,171.52,16.74,20.95,21.36,76.87,96.18,98.10,2025-10-09T16:43:12.102636
2025-10-09,16:43:06,24.14955783,120.70326617,152.2,26.724,186.29,8,0.98,11,2025-10-09,16:43:06,24.149601,120.70314583,130.3,26.595,176.69,8,1.02,13,2025-10-09,16:43:07,24.149675,120.70315733,127.9,26.835,184.46,8,1.02,11,0.03,94.22,137.77,17.34,22.06,21.32,79.63,101.30,97.91,2025-10-09T16:43:12.305340
2025-10-09,16:43:07,24.1495425,120.70326617,152.4,26.817,186.07,8,0.98,11,2025-10-09,16:43:07,24.14958783,120.70314433,130.4,25.261,178.15,8,1.02,13,2025-10-09,16:43:07,24.149675,120.70315733,128.0,26.835,184.46,8,1.02,11,296.75,52.03,143.40,22.83,19.20,18.36,104.85,88.19,84.32,2025-10-09T16:43:12.508137
2025-10-09,16:43:07,24.1495275,120.70326433,152.5,27.058,185.94,8,0.98,11,2025-10-09,16:43:07,24.1495595,120.70313967,130.4,25.761,184.94,8,1.02,13,2025-10-09,16:43:07,24.14964883,120.703159,128.0,25.909,182.65,8,1.02,11,343.16,348.74,130.74,17.82,23.20,20.95,81.82,106.52,96.20,2025-10-09T16:43:12.711055
2025-10-09,16:43:07,24.14951283,120.70326383,152.6,26.835,184.55,7,1.15,11,2025-10-09,16:43:07,24.14954533,120.70313933,130.7,26.169,185.01,6,1.39,13,2025-10-09,16:43:07,24.14963583,120.70315883,128.4,25.632,182.64,8,1.02,11,209.56,227.81,89.96,22.43,19.06,20.49,102.99,87.52,94.10,2025-10-09T16:43:12.915582
2025-10-09,16:43:07,24.149498,120.70326317,152.5,27.058,182.78,7,1.15,11,2025-10-09,16:43:07,24.14953,120.70313917,130.6,26.743,184.42,6,1.39,13,2025-10-09,16:43:07,24.14962283,120.70315767,128.7,25.391,183.52,8,1.02,11,153.31,284.07,26.67,19.79,19.66,18.51,90.86,90.28,85.00,2025-10-09T16:43:13.119115
2025-10-09,16:43:07,24.1494835,120.70326183,152.3,27.447,182.34,7,1.15,11,2025-10-09,16:43:08,24.14951483,120.70313917,130.6,27.15,183.73,6,1.39,13,2025-10-09,16:43:07,24.14962283,120.70315767,129.0,25.391,183.52,8,1.02,11,73.16,137.82,329.01,22.10,20.23,18.39,101.49,92.88,84.45,2025-10-09T16:43:13.323025
2025-10-09,16:43:08,24.14946867,120.70326,152.3,27.261,182.81,7,1.15,11,2025-10-09,16:43:08,24.1494995,120.70313867,130.6,27.391,183.61,6,1.39,13,2025-10-09,16:43:08,24.149613,120.70315717,129.5,23.261,183.06,8,1.02,11,317.85,67.51,258.70,17.41,19.29,16.96,79.96,88.59,77.88,2025-10-09T16:43:13.525968
2025-10-09,16:43:08,24.14945417,120.70325933,151.9,27.724,183.91,7,1.24,11,2025-10-09,16:43:08,24.1494995,120.70313867,130.8,27.391,183.61,7,1.23,13,2025-10-09,16:43:08,24.14960167,120.70315717,129.5,22.668,183.02,8,1.02,11,147.69,7.05,212.29,22.30,20.62,21.25,102.40,94.69,97.56,2025-10-09T16:43:13.730675
2025-10-09,16:43:08,24.1494255,120.70325833,151.6,27.428,181.98,7,1.24,11,2025-10-09,16:43:08,24.149485,120.70313833,130.8,27.261,182.92,7,1.23,12,2025-10-09,16:43:08,24.149589,120.703157,129.5,23.243,183.02,8,1.02,11,215.19,341.74,177.13,17.79,20.58,17.45,81.67,94.49,80.15,2025-10-09T16:43:13.934883
2025-10-09,16:43:08,24.1494255,120.70325833,151.0,27.428,181.98,7,1.24,11,2025-10-09,16:43:08,24.14947083,120.70313783,130.7,27.521,183.41,6,1.8,12,2025-10-09,16:43:08,24.14957617,120.70315617,129.5,23.576,183.97,8,1.02,11,237.69,323.45,141.98,17.07,17.53,21.86,78.39,80.49,100.39,2025-10-09T16:43:14.138524
2025-10-09,16:43:08,24.14941033,120.70325733,151.0,27.687,181.99,7,1.24,12,2025-10-09,16:43:08,24.14945617,120.70313817,130.4,27.687,182.79,5,1.8,12,2025-10-09,16:43:09,24.14954333,120.7031615,129.4,26.521,182.35,8,1.02,11,334.72,255.95,109.63,20.58,20.75,16.67,94.52,95.26,76.53,2025-10-09T16:43:14.342055
2025-10-09,16:43:09,24.1493955,120.7032575,150.7,27.706,182.02,7,1.24,12,2025-10-09,16:43:09,24.14944133,120.703138,130.2,27.428,182.94,5,1.8,12,2025-10-09,16:43:09,24.14952533,120.70316467,128.7,27.41,181.95,8,1.02,11,344.56,208.14,87.13,19.78,19.71,16.77,90.82,90.52,77.02,2025-10-09T16:43:14.547249
2025-10-09,16:43:09,24.14938033,120.703258,150.1,28.206,182.39,7,1.24,12,2025-10-09,16:43:09,24.1494265,120.70313817,130.0,27.539,182.74,7,1.23,12,2025-10-09,16:43:09,24.14950867,120.703168,127.9,26.873,181.62,8,1.02,11,5.66,205.33,70.26,16.18,18.62,19.95,74.29,85.51,91.61,2025-10-09T16:43:14.750775
2025-10-09,16:43:09,24.1493655,120.70325817,149.4,27.058,181.68,7,1.43,12,2025-10-09,16:43:09,24.14941217,120.70313817,129.8,26.928,182.25,7,1.41,12,2025-10-09,16:43:09,24.14949333,120.70316917,126.9,26.465,182.54,8,1.02,11,351.60,144.86,57.60,20.84,21.21,19.48,95.68,97.40,89.43,2025-10-09T16:43:14.953327
2025-10-09,16:43:09,24.14935217,120.7032575,149.1,26.113,181.85,7,1.43,12,2025-10-09,16:43:09,24.149384,120.70313833,129.4,25.558,182.06,6,1.41,12,2025-10-09,16:43:09,24.1494795,120.7031695,126.9,25.706,183.65,8,1.02,11,309.41,122.36,64.63,19.89,19.13,19.42,91.35,87.86,89.18,2025-10-09T16:43:15.156485
2025-10-09,16:43:09,24.14933883,120.7032575,148.3,25.169,181.01,7,1.24,12,2025-10-09,16:43:10,24.14937067,120.70313883,129.4,24.65,181.51,6,1.41,12,2025-10-09,16:43:10,24.1494665,120.703168,125.8,25.446,185.67,7,1.18,11,77.38,132.21,28.07,20.10,18.05,18.22,92.28,82.88,83.68,2025-10-09T16:43:15.358716
2025-10-09,16:43:10,24.149327,120.70325733,147.7,24.372,181.56,7,1.24,12,2025-10-09,16:43:10,24.149358,120.70313917,129.2,24.039,181.41,5,1.7,12,2025-10-09,16:43:10,24.14945467,120.70317017,125.3,23.909,185.19,7,1.18,11,29.56,46.43,18.23,17.58,19.28,20.29,80.72,88.54,93.15,2025-10-09T16:43:15.561097
2025-10-09,16:43:10,24.1493145,120.70325733,147.3,23.632,181.06,7,1.24,12,2025-10-09,16:43:10,24.14934567,120.70313917,129.0,23.15,181.79,6,1.41,12,2025-10-09,16:43:10,24.14944317,120.70317283,124.7,23.52,183.11,7,1.18,11,70.35,130.80,357.13,17.32,18.40,19.30,79.52,84.50,88.62,2025-10-09T16:43:15.764601
2025-10-09,16:43:10,24.1492905,120.70325767,147.3,22.446,181.59,7,1.24,12,2025-10-09,16:43:10,24.14933417,120.70313933,128.9,22.409,181.52,6,1.41,12,2025-10-09,16:43:10,24.14943217,120.70317417,124.6,22.465,181.88,7,1.16,11,98.47,105.49,336.04,21.65,19.81,19.30,99.41,90.96,88.62,2025-10-09T16:43:15.981830
2025-10-09,16:43:10,24.1492905,120.70325767,146.9,22.446,181.59,7,1.24,12,2025-10-09,16:43:10,24.1493225,120.70313917,129.0,21.705,181.99,6,1.41,12,2025-10-09,16:43:10,24.14942117,120.7031765,125.1,21.909,180.0,7,1.16,11,170.19,87.21,305.10,20.71,23.73,19.69,95.08,108.97,90.43,2025-10-09T16:43:16.186777
2025-10-09,16:43:10,24.1492795,120.70325733,146.5,21.261,182.01,7,1.24,12,2025-10-09,16:43:11,24.1493115,120.70313917,129.0,20.872,181.59,7,1.16,12,2025-10-09,16:43:11,24.149411,120.70318017,125.4,20.909,177.06,7,1.16,11,181.44,109.71,289.63,19.98,18.63,20.31,91.76,85.53,93.25,2025-10-09T16:43:16.389749
2025-10-09,16:43:11,24.1492585,120.703257,146.5,19.557,182.44,7,1.24,12,2025-10-09,16:43:11,24.1493015,120.70313883,128.8,19.835,181.64,7,1.16,12,2025-10-09,16:43:11,24.14940133,120.70317933,125.9,19.89,177.3,7,1.16,11,140.66,175.80,264.32,19.70,18.81,19.82,90.44,86.37,91.03,2025-10-09T16:43:16.592815
2025-10-09,16:43:11,24.14924833,120.70325733,146.1,18.909,182.49,7,1.24,12,2025-10-09,16:43:11,24.149291,120.70313917,128.8,19.02,181.32,7,1.16,12,2025-10-09,16:43:11,24.14939233,120.703179,126.6,17.927,178.19,7,1.16,11,137.85,150.49,233.38,19.63,19.48,18.09,90.12,89.46,83.08,2025-10-09T16:43:16.795500
2025-10-09,16:43:11,24.14923867,120.70325717,145.9,18.242,182.47,7,1.43,12,2025-10-09,16:43:11,24.1492805,120.7031395,129.0,18.205,180.86,7,1.16,12,2025-10-09,16:43:11,24.14938283,120.70318067,126.8,17.52,177.86,7,1.16,11,132.22,146.27,223.54,20.76,15.39,17.93,95.32,70.65,82.34,2025-10-09T16:43:16.997756
2025-10-09,16:43:11,24.14922967,120.70325717,145.6,17.261,182.25,7,1.24,12,2025-10-09,16:43:11,24.1492715,120.70313967,129.0,17.187,180.94,8,1.02,12,2025-10-09,16:43:11,24.1493745,120.70318217,127.0,16.835,177.12,7,1.16,11,123.78,127.99,202.45,17.52,21.02,18.67,80.46,96.53,85.74,2025-10-09T16:43:17.199907
2025-10-09,16:43:12,24.149221,120.70325683,145.4,16.538,182.26,7,1.24,12,2025-10-09,16:43:12,24.14926267,120.70314,129.0,16.687,181.05,8,1.02,12,2025-10-09,16:43:12,24.14936633,120.70318333,127.0,15.353,177.56,7,1.16,11,146.28,203.93,165.88,17.24,19.67,20.54,79.18,90.30,94.31,2025-10-09T16:43:17.402629
2025-10-09,16:43:12,24.149213,120.70325667,145.1,15.612,181.66,7,1.15,12,2025-10-09,16:43:12,24.14925417,120.70313983,129.4,15.131,181.3,8,1.02,12,2025-10-09,16:43:12,24.1493575,120.70318417,127.3,15.057,178.11,8,1.16,11,63.31,199.71,141.98,18.39,21.49,18.47,84.45,98.68,84.79,2025-10-09T16:43:17.604991
2025-10-09,16:43:12,24.14920517,120.70325667,144.8,14.723,181.03,7,1.15,12,2025-10-09,16:43:12,24.14924617,120.70313983,129.2,15.094,181.08,8,1.02,12,2025-10-09,16:43:12,24.14934967,120.7031845,127.0,14.409,179.69,8,1.02,11,308.00,292.52,113.85,16.97,18.09,17.89,77.94,83.06,82.17,2025-10-09T16:43:17.807099
2025-10-09,16:43:12,24.149198,120.70325617,144.7,14.316,182.53,8,0.98,12,2025-10-09,16:43:12,24.14923983,120.70313983,128.5,14.223,180.46,8,1.02,12,2025-10-09,16:43:12,24.14934183,120.70318633,126.1,13.909,179.59,8,1.1,11,181.44,305.17,111.04,18.08,23.39,21.91,83.03,107.42,100.62,2025-10-09T16:43:18.010194
2025-10-09,16:43:12,24.14919133,120.7032565,144.3,12.871,181.52,8,0.98,12,2025-10-09,16:43:12,24.14923267,120.70313983,128.4,13.501,179.83,8,1.02,12,2025-10-09,16:43:12,24.1493335,120.70318767,126.0,12.89,180.1,8,1.02,11,216.60,49.24,95.58,23.56,23.43,17.76,108.21,107.56,81.54,2025-10-09T16:43:18.212098
2025-10-09,16:43:13,24.14918517,120.70325633,143.9,12.39,179.82,8,0.98,12,2025-10-09,16:43:13,24.14922633,120.70314,128.2,12.594,179.74,8,1.02,12,2025-10-09,16:43:13,24.14932033,120.7031915,125.2,10.89,178.34,8,1.1,11,122.38,52.05,88.54,16.34,20.43,20.97,75.03,93.79,96.28,2025-10-09T16:43:18.414202
2025-10-09,16:43:13,24.14917983,120.70325667,143.4,11.575,178.17,7,1.15,12,2025-10-09,16:43:13,24.14921533,120.70313983,128.2,11.056,179.4,8,1.02,12,2025-10-09,16:43:13,24.14932033,120.7031915,124.8,10.89,178.34,8,1.02,11,87.22,82.99,75.89,20.13,22.73,20.03,92.43,104.39,91.99,2025-10-09T16:43:18.616287
2025-10-09,16:43:13,24.14917433,120.70325617,142.4,10.723,177.71,7,1.15,12,2025-10-09,16:43:13,24.14921033,120.70313983,127.6,10.445,179.66,8,1.02,12,2025-10-09,16:43:13,24.1493125,120.70319233,124.4,10.797,179.58,8,1.02,11,80.19,140.64,60.42,19.53,19.38,18.28,89.66,88.99,83.95,2025-10-09T16:43:18.819010
2025-10-09,16:43:13,24.14916933,120.70325567,142.0,10.112,176.94,7,1.15,12,2025-10-09,16:43:13,24.1492055,120.70314017,127.3,9.538,179.49,8,1.02,12,2025-10-09,16:43:13,24.14930517,120.70319283,124.1,10.408,181.44,8,1.02,11,74.56,125.17,36.51,20.49,18.41,19.10,94.10,84.53,87.71,2025-10-09T16:43:19.023357
2025-10-09,16:43:13,24.14916467,120.7032545,141.6,9.593,181.21,7,1.35,12,2025-10-09,16:43:13,24.1492055,120.70314017,127.1,9.538,179.49,8,1.02,12,2025-10-09,16:43:13,24.14929833,120.70319417,123.7,9.945,181.93,8,1.02,11,21.13,165.95,39.33,18.14,20.66,17.93,83.29,94.86,82.33,2025-10-09T16:43:19.225959
2025-10-09,16:43:14,24.14916033,120.70325383,141.2,8.89,178.98,7,1.15,12,2025-10-09,16:43:14,24.1492015,120.70314033,127.1,9.223,179.42,8,1.02,14,2025-10-09,16:43:14,24.14929367,120.70319583,123.4,8.612,179.65,8,1.02,11,329.10,206.73,42.14,18.58,23.41,17.29,85.30,107.48,79.37,2025-10-09T16:43:19.427588
2025-10-09,16:43:14,24.14915667,120.70325333,140.6,8.26,178.18,8,1.15,12,2025-10-09,16:43:14,24.14919683,120.70314083,126.6,8.686,178.79,8,1.02,14,2025-10-09,16:43:14,24.14928867,120.70319733,123.0,8.982,178.67,8,1.02,11,345.97,201.10,30.89,19.51,18.72,20.36,89.60,85.95,93.47,2025-10-09T16:43:19.631309
2025-10-09,16:43:14,24.14915267,120.70325233,140.6,7.89,178.19,8,1.15,13,2025-10-09,16:43:14,24.1491935,120.7031415,126.5,7.778,176.43,8,1.02,14,2025-10-09,16:43:14,24.1492845,120.70319917,122.6,8.112,178.82,8,1.02,11,196.91,90.02,341.67,19.31,20.24,19.55,88.65,92.94,89.77,2025-10-09T16:43:19.833010
2025-10-09,16:43:14,24.14914933,120.703252,140.2,7.204,178.05,8,1.15,13,2025-10-09,16:43:14,24.14918983,120.70314183,126.1,7.797,177.08,8,1.02,14,2025-10-09,16:43:14,24.1492805,120.70319967,122.5,7.63,180.23,8,1.02,11,267.22,7.05,320.58,18.51,20.93,16.60,84.98,96.11,76.25,2025-10-09T16:43:20.036701
2025-10-09,16:43:14,24.14914517,120.7032515,139.8,6.982,178.78,8,1.15,13,2025-10-09,16:43:14,24.14918667,120.70314233,126.1,6.889,178.45,8,1.02,14,2025-10-09,16:43:14,24.14927717,120.70320033,122.4,6.852,180.54,8,1.02,11,0.03,351.58,296.66,20.18,21.80,18.59,92.68,100.10,85.38,2025-10-09T16:43:20.239419
2025-10-09,16:43:15,24.14914167,120.70325117,139.6,6.297,178.02,8,0.98,13,2025-10-09,16:43:15,24.14918367,120.7031425,125.5,6.889,179.34,8,1.02,14,2025-10-09,16:43:15,24.1492715,120.70320017,122.4,6.075,182.93,8,1.02,11,299.56,43.61,296.67,23.29,19.38,23.14,106.94,88.98,106.26,2025-10-09T16:43:20.441683
2025-10-09,16:43:15,24.14913833,120.7032505,139.5,6.093,179.57,8,0.98,13,2025-10-09,16:43:15,24.14917917,120.70314233,125.5,5.686,181.14,8,1.02,13,2025-10-09,16:43:15,24.14926867,120.70320083,122.1,5.593,183.22,8,1.02,11,126.60,163.14,329.01,20.16,18.62,19.23,92.57,85.49,88.28,2025-10-09T16:43:20.644655
2025-10-09,16:43:15,24.14913517,120.70325067,139.4,5.556,179.27,8,0.98,13,2025-10-09,16:43:15,24.14917917,120.70314233,125.0,5.686,181.14,8,1.02,13,2025-10-09,16:43:15,24.14926867,120.70320083,121.9,5.593,183.22,8,1.02,11,218.00,320.64,18.23,22.97,18.97,21.64,105.46,87.12,99.39,2025-10-09T16:43:20.847916
2025-10-09,16:43:15,24.1491325,120.70325067,139.1,5.0,178.3,8,0.98,13,2025-10-09,16:43:15,24.14917733,120.70314233,125.0,4.926,180.22,8,1.02,13,2025-10-09,16:43:15,24.14926667,120.7032015,121.9,4.519,182.21,8,1.02,11,42.22,68.92,54.80,21.83,20.20,19.74,100.24,92.77,90.65,2025-10-09T16:43:21.051247
2025-10-09,16:43:15,24.14913,120.7032505,138.9,4.167,177.92,8,0.98,13,2025-10-09,16:43:15,24.14917567,120.703142,124.7,4.297,180.66,8,1.02,13,2025-10-09,16:43:15,24.14926383,120.7032025,121.6,4.5,183.35,8,1.02,11,50.66,66.10,54.80,15.90,16.92,18.80,73.01,77.70,86.31,2025-10-09T16:43:21.254690
2025-10-09,16:43:16,24.1491265,120.70324933,138.9,2.371,184.35,8,0.98,13,2025-10-09,16:43:16,24.14917467,120.70314183,124.0,3.111,182.67,8,1.02,13,2025-10-09,16:43:16,24.14926067,120.70320333,121.6,2.834,182.76,8,1.02,11,61.91,61.89,57.61,18.80,18.53,21.21,86.34,85.09,97.40,2025-10-09T16:43:21.458265
2025-10-09,16:43:16,24.1491265,120.70324933,138.3,2.371,184.35,8,0.98,13,2025-10-09,16:43:16,24.14917367,120.70314117,123.8,2.778,184.87,8,1.02,13,2025-10-09,16:43:16,24.14925983,120.70320433,121.4,1.741,188.14,8,1.02,11,357.22,98.44,74.49,19.60,20.50,18.68,90.02,94.13,85.78,2025-10-09T16:43:21.661373
2025-10-09,16:43:16,24.1491255,120.7032495,138.3,1.889,184.35,8,0.98,13,2025-10-09,16:43:16,24.149173,120.70314133,123.5,1.574,180.83,8,1.02,13,2025-10-09,16:43:16,24.14925883,120.7032055,121.2,1.463,188.14,8,1.02,11,185.66,206.72,111.05,19.08,20.13,19.88,87.61,92.45,91.26,2025-10-09T16:43:21.863908
2025-10-09,16:43:16,24.14912333,120.70324933,137.9,1.426,184.35,8,0.98,13,2025-10-09,16:43:16,24.149173,120.70314133,123.1,1.574,180.83,8,1.02,13,2025-10-09,16:43:16,24.14925883,120.70320617,121.1,0.667,188.14,8,1.02,11,56.28,295.32,136.36,20.26,17.92,19.86,93.04,82.30,91.18,2025-10-09T16:43:22.066424
2025-10-09,16:43:17,24.14912267,120.70324983,137.5,1.093,184.35,9,0.8,13,2025-10-09,16:43:17,24.149173,120.70314133,123.1,1.093,183.1,8,1.02,12,2025-10-09,16:43:17,24.14925867,120.70320683,121.0,0.444,188.14,8,1.02,11,343.16,333.28,150.42,18.11,19.40,18.03,83.16,89.06,82.79,2025-10-09T16:43:22.269228
2025-10-09,16:43:17,24.1491215,120.70324917,137.4,0.926,184.35,9,0.8,13,2025-10-09,16:43:17,24.149173,120.70314133,122.4,1.204,178.31,8,1.02,12,2025-10-09,16:43:17,24.14925867,120.70320767,121.0,0.796,188.14,8,1.02,11,291.13,9.84,161.68,17.39,20.50,16.52,79.85,94.11,75.87,2025-10-09T16:43:22.471751
2025-10-09,16:43:17,24.14912083,120.70324833,137.2,0.593,184.35,9,0.8,13,2025-10-09,16:43:17,24.1491735,120.7031415,122.2,0.537,178.31,8,1.02,12,2025-10-09,16:43:17,24.14925917,120.7032085,121.0,0.019,188.14,8,1.02,11,241.91,52.03,172.93,17.51,15.97,19.68,80.41,73.32,90.35,2025-10-09T16:43:22.674952
2025-10-09,16:43:17,24.14912033,120.703248,137.0,0.241,184.35,9,0.8,13,2025-10-09,16:43:17,24.149174,120.7031415,121.9,0.352,178.31,8,1.02,12,2025-10-09,16:43:17,24.14925967,120.70320867,120.9,0.259,188.14,8,1.02,11,209.56,78.75,181.37,18.45,22.31,19.13,84.72,102.46,87.86,2025-10-09T16:43:22.877773
2025-10-09,16:43:17,24.14912,120.70324817,136.8,0.556,184.35,9,0.8,13,2025-10-09,16:43:17,24.1491745,120.70314167,121.6,0.315,178.31,8,1.02,12,2025-10-09,16:43:17,24.14925983,120.70320933,121.0,0.037,188.14,8,1.02,11,182.85,94.22,188.40,16.38,20.55,16.50,75.21,94.35,75.74,2025-10-09T16:43:23.083398
2025-10-09,16:43:18,24.1491195,120.70324733,136.7,0.352,184.35,9,0.8,13,2025-10-09,16:43:18,24.149175,120.703142,121.3,0.13,178.31,8,1.02,12,2025-10-09,16:43:18,24.14926,120.70321033,121.0,0.093,188.14,8,1.02,11,156.13,105.47,195.43,18.44,21.52,17.59,84.67,98.82,80.79,2025-10-09T16:43:23.285753
2025-10-09,16:43:18,24.14911917,120.70324617,136.6,0.222,184.35,9,0.8,13,2025-10-09,16:43:18,24.14917533,120.70314233,121.1,0.204,178.31,9,0.85,12,2025-10-09,16:43:18,24.14926017,120.70321117,121.0,0.074,188.14,8,1.02,11,135.03,115.31,203.87,16.28,20.35,19.44,74.78,93.44,89.24,2025-10-09T16:43:23.488019
2025-10-09,16:43:18,24.14911817,120.70324417,136.5,0.074,184.35,9,0.8,13,2025-10-09,16:43:18,24.14917567,120.70314233,120.7,0.037,178.31,9,0.85,12,2025-10-09,16:43:18,24.14926067,120.703212,121.0,0.204,188.14,8,1.02,11,128.00,119.53,209.49,17.56,19.02,20.37,80.65,87.32,93.53,2025-10-09T16:43:23.690294
2025-10-09,16:43:18,24.14911767,120.70324283,136.5,0.241,184.35,9,0.8,13,2025-10-09,16:43:18,24.149176,120.70314233,120.5,0.13,178.31,9,0.85,12,2025-10-09,16:43:18,24.14926083,120.7032125,121.1,0.093,188.14,8,1.02,11,119.56,129.38,215.12,17.49,22.88,19.54,80.29,105.05,89.72,2025-10-09T16:43:23.893051
2025-10-09,16:43:19,24.149117,120.70324183,136.5,0.222,184.35,9,0.8,13,2025-10-09,16:43:18,24.14917633,120.70314267,120.3,0.296,178.31,9,0.85,12,2025-10-09,16:43:19,24.14926133,120.70321283,121.1,0.111,188.14,8,1.02,11,112.53,140.62,222.15,15.93,18.49,18.84,73.14,84.90,86.50,2025-10-09T16:43:24.095335
2025-10-09,16:43:19,24.14911633,120.70324017,136.6,0.148,184.35,9,0.8,13,2025-10-09,16:43:19,24.1491765,120.70314317,120.1,0.074,178.31,9,0.85,12,2025-10-09,16:43:19,24.14926183,120.70321333,121.2,0.056,188.14,8,1.02,11,102.69,140.62,227.77,16.33,19.98,19.41,75.00,91.75,89.12,2025-10-09T16:43:24.297752
2025-10-09,16:43:19,24.14911583,120.70323917,136.6,0.241,184.35,9,0.8,13,2025-10-09,16:43:19,24.14917667,120.7031435,119.9,0.093,178.31,9,0.85,12,2025-10-09,16:43:19,24.14926217,120.70321383,121.3,0.074,188.14,8,1.02,11,95.66,137.81,233.40,19.04,20.93,20.66,87.43,96.09,94.87,2025-10-09T16:43:24.501010
2025-10-09,16:43:19,24.14911533,120.70323767,136.6,0.056,184.35,9,0.8,13,2025-10-09,16:43:19,24.14917683,120.70314367,119.7,0.056,178.31,9,0.85,12,2025-10-09,16:43:19,24.1492625,120.70321433,121.3,0.185,188.14,8,1.17,11,97.06,137.81,237.62,18.58,20.77,20.46,85.32,95.37,93.94,2025-10-09T16:43:24.704222
2025-10-09,16:43:19,24.14911483,120.70323633,136.7,0.056,184.35,9,0.8,13,2025-10-09,16:43:19,24.149177,120.70314417,119.5,0.167,178.31,9,0.85,12,2025-10-09,16:43:19,24.149263,120.70321483,121.4,0.167,188.14,8,1.02,11,98.47,142.03,240.43,16.63,19.59,20.25,76.38,89.96,93.00,2025-10-09T16:43:24.906979
2025-10-09,16:43:20,24.14911433,120.70323517,136.8,0.074,184.35,9,0.8,13,2025-10-09,16:43:19,24.14917717,120.70314433,119.4,0.037,178.31,9,0.85,12,2025-10-09,16:43:20,24.1492635,120.70321517,121.4,0.056,188.14,8,1.18,11,92.85,144.84,244.65,16.88,20.52,22.26,77.51,94.21,102.22,2025-10-09T16:43:25.109348
2025-10-09,16:43:20,24.14911383,120.70323383,136.9,0.111,184.35,9,0.8,13,2025-10-09,16:43:20,24.14917717,120.7031445,119.2,0.093,178.31,9,0.85,12,2025-10-09,16:43:20,24.14926383,120.70321567,121.5,0.204,188.14,8,1.02,11,94.25,147.66,250.27,18.16,20.66,17.30,83.41,94.88,79.45,2025-10-09T16:43:25.311508
2025-10-09,16:43:20,24.14911333,120.70323267,137.0,0.0,184.35,9,0.8,13,2025-10-09,16:43:20,24.14917733,120.70314467,119.1,0.093,178.31,9,0.85,12,2025-10-09,16:43:20,24.14926433,120.70321617,121.6,0.167,188.14,8,1.02,11,88.63,146.25,251.68,17.12,20.07,19.76,78.59,92.16,90.72,2025-10-09T16:43:25.513779
2025-10-09,16:43:20,24.149113,120.70323167,137.1,0.241,184.35,9,0.8,13,2025-10-09,16:43:20,24.14917733,120.70314467,119.0,0.259,178.31,9,0.85,12,2025-10-09,16:43:20,24.149265,120.7032165,121.6,0.296,188.14,8,1.02,11,88.63,140.62,254.49,16.69,20.51,21.12,76.62,94.18,97.00,2025-10-09T16:43:25.716545
2025-10-09,16:43:20,24.14911267,120.7032305,137.1,0.204,184.35,9,0.8,13,2025-10-09,16:43:20,24.14917733,120.70314483,118.8,0.111,178.31,9,0.85,12,2025-10-09,16:43:20,24.1492655,120.703217,121.7,0.13,188.14,8,1.02,11,90.03,149.06,260.12,14.99,20.09,17.38,68.84,92.24,79.81,2025-10-09T16:43:25.918569
2025-10-09,16:43:21,24.14911217,120.70322933,137.2,0.222,184.35,9,0.8,13,2025-10-09,16:43:21,24.14917733,120.703145,118.7,0.167,178.31,9,0.85,12,2025-10-09,16:43:21,24.14926583,120.7032175,121.7,0.222,188.14,8,1.02,11,92.85,153.28,264.34,18.09,20.02,18.67,83.08,91.93,85.75,2025-10-09T16:43:26.121006
2025-10-09,16:43:21,24.14911183,120.70322783,137.3,0.056,184.35,9,0.8,13,2025-10-09,16:43:21,24.14917717,120.70314483,118.6,0.074,178.31,9,0.85,12,2025-10-09,16:43:21,24.1492665,120.70321783,121.7,0.093,188.14,8,1.02,11,88.63,151.88,268.56,16.17,19.93,18.81,74.26,91.50,86.38,2025-10-09T16:43:26.323787
2025-10-09,16:43:21,24.14911083,120.70322533,137.3,0.315,184.35,9,0.8,13,2025-10-09,16:43:21,24.14917717,120.703145,118.4,0.111,178.31,9,0.85,12,2025-10-09,16:43:21,24.14926733,120.7032185,121.7,0.093,188.14,8,1.02,11,87.22,149.06,274.18,18.05,20.99,20.70,82.90,96.39,95.04,2025-10-09T16:43:26.526497
2025-10-09,16:43:21,24.1491105,120.7032245,137.5,0.204,184.35,9,0.8,13,2025-10-09,16:43:21,24.14917717,120.70314517,118.4,0.056,178.31,9,0.85,12,2025-10-09,16:43:21,24.149268,120.70321883,121.7,0.074,188.14,8,1.02,11,91.44,154.69,276.99,16.12,20.31,19.14,74.02,93.27,87.89,2025-10-09T16:43:26.729304
2025-10-09,16:43:22,24.14911017,120.70322317,137.5,0.278,184.35,9,0.8,13,2025-10-09,16:43:22,24.14917717,120.70314533,118.2,0.056,178.31,9,0.85,12,2025-10-09,16:43:22,24.1492685,120.70321917,121.7,0.296,188.14,8,1.02,11,92.85,157.50,281.21,17.94,18.01,20.42,82.39,82.68,93.76,2025-10-09T16:43:26.931820
2025-10-09,16:43:22,24.1491095,120.70322167,137.6,0.13,184.35,9,0.8,13,2025-10-09,16:43:22,24.14917733,120.7031455,118.1,0.13,178.31,9,0.85,12,2025-10-09,16:43:22,24.149269,120.7032195,121.7,0.037,188.14,8,1.02,11,88.63,160.31,286.84,14.99,21.72,19.85,68.85,99.71,91.17,2025-10-09T16:43:27.134133
2025-10-09,16:43:22,24.149109,120.70322017,137.7,0.111,184.35,9,0.8,13,2025-10-09,16:43:22,24.14917733,120.7031455,118.1,0.13,178.31,9,0.85,12,2025-10-09,16:43:22,24.14926933,120.70321983,121.7,0.259,188.14,8,1.02,11,90.03,157.50,291.06,15.98,17.95,19.38,73.39,82.41,88.99,2025-10-09T16:43:27.336487
2025-10-09,16:43:22,24.14910833,120.70321867,137.8,0.13,184.35,9,0.8,13,2025-10-09,16:43:22,24.14917717,120.70314567,118.1,0.074,178.31,9,0.85,12,2025-10-09,16:43:22,24.14926967,120.70322017,121.8,0.167,188.14,8,1.02,11,94.25,151.88,293.87,19.64,19.12,19.70,90.17,87.81,90.44,2025-10-09T16:43:27.538689
2025-10-09,16:43:22,24.14910783,120.70321717,137.9,0.185,184.35,9,0.8,13,2025-10-09,16:43:22,24.14917717,120.70314567,117.9,0.093,178.31,9,0.85,12,2025-10-09,16:43:22,24.14927,120.7032205,121.8,0.222,188.14,8,1.02,11,98.47,144.84,299.49,19.75,20.37,17.87,90.70,93.55,82.04,2025-10-09T16:43:27.741335
2025-10-09,16:43:23,24.14910733,120.7032155,138.1,0.074,184.35,9,0.8,13,2025-10-09,16:43:23,24.14917717,120.70314583,117.8,0.111,178.31,9,0.85,12,2025-10-09,16:43:23,24.14927033,120.70322083,121.8,0.167,188.14,8,1.02,11,111.13,157.50,302.31,15.07,22.06,17.46,69.20,101.28,80.17,2025-10-09T16:43:27.943244
2025-10-09,16:43:23,24.149107,120.703214,138.2,0.056,184.35,9,0.8,13,2025-10-09,16:43:23,24.14917733,120.703146,117.8,0.222,178.31,9,0.85,12,2025-10-09,16:43:23,24.14927083,120.70322117,121.8,0.037,188.14,8,1.02,11,95.66,153.28,309.34,18.19,19.35,19.77,83.53,88.83,90.77,2025-10-09T16:43:28.144381
2025-10-09,16:43:23,24.14910667,120.70321233,138.2,0.037,184.35,9,0.8,13,2025-10-09,16:43:23,24.14917717,120.70314617,117.7,0.259,178.31,9,0.85,12,2025-10-09,16:43:23,24.149271,120.70322167,121.8,0.148,188.14,8,1.02,11,87.22,150.47,313.56,15.86,19.07,20.69,72.84,87.57,95.01,2025-10-09T16:43:28.347389
2025-10-09,16:43:23,24.14910617,120.70321033,138.3,0.167,184.35,9,0.8,13,2025-10-09,16:43:23,24.14917717,120.703146,117.6,0.148,178.31,9,0.85,12,2025-10-09,16:43:23,24.14927133,120.703222,121.8,0.204,188.14,8,1.02,11,91.44,149.06,321.99,18.36,21.68,21.26,84.30,99.54,97.63,2025-10-09T16:43:28.549164
2025-10-09,16:43:23,24.14910583,120.70320917,138.5,0.093,184.35,9,0.8,13,2025-10-09,16:43:23,24.149177,120.703146,117.5,0.167,178.31,9,0.85,12,2025-10-09,16:43:23,24.14927167,120.70322233,121.8,0.296,188.14,7,1.18,11,95.66,149.06,326.21,16.40,21.46,21.74,75.32,98.55,99.81,2025-10-09T16:43:28.751636
2025-10-09,16:43:24,24.1491055,120.703208,138.5,0.093,184.35,9,0.8,12,2025-10-09,16:43:24,24.14917683,120.703146,117.4,0.074,178.31,9,0.85,12,2025-10-09,16:43:24,24.149272,120.70322283,121.8,0.426,188.14,7,1.18,11,88.63,146.25,333.24,17.53,20.56,20.17,80.49,94.42,92.60,2025-10-09T16:43:28.954287
2025-10-09,16:43:24,24.14910533,120.70320667,138.7,0.167,184.35,9,0.8,12,2025-10-09,16:43:24,24.14917667,120.703146,117.4,0.111,178.31,9,0.85,12,2025-10-09,16:43:24,24.14927233,120.70322333,121.8,0.389,188.14,7,1.18,11,90.03,136.41,338.87,16.67,18.09,18.14,76.55,83.07,83.28,2025-10-09T16:43:29.156531
2025-10-09,16:43:24,24.14910517,120.70320533,138.7,0.148,184.35,9,0.8,12,2025-10-09,16:43:24,24.14917667,120.70314583,117.3,0.093,178.31,9,0.85,12,2025-10-09,16:43:24,24.1492725,120.70322383,121.9,0.352,188.14,7,1.18,11,102.69,149.06,341.68,18.26,19.61,20.58,83.86,90.06,94.49,2025-10-09T16:43:29.358911
2025-10-09,16:43:24,24.14910517,120.70320433,138.7,0.037,184.35,9,0.8,12,2025-10-09,16:43:24,24.14917667,120.70314583,117.2,0.111,178.31,9,0.85,12,2025-10-09,16:43:24,24.14927283,120.70322433,121.9,0.315,188.14,7,1.18,11,90.03,142.03,347.31,15.83,19.58,19.81,72.70,89.91,90.98,2025-10-09T16:43:29.561421
2025-10-09,16:43:24,24.14910483,120.70320317,138.7,0.037,184.35,9,0.8,12,2025-10-09,16:43:24,24.14917667,120.70314583,117.2,0.13,178.31,9,0.85,12,2025-10-09,16:43:24,24.149273,120.70322483,121.9,0.037,188.14,7,1.18,11,91.44,149.06,351.52,15.24,18.63,20.50,69.98,85.57,94.13,2025-10-09T16:43:29.763652
2025-10-09,16:43:25,24.14910467,120.70320217,138.7,0.111,184.35,9,0.8,12,2025-10-09,16:43:25,24.14917667,120.703146,117.2,0.222,178.31,9,0.85,12,2025-10-09,16:43:25,24.14927333,120.70322533,121.9,0.13,188.14,7,1.18,11,88.63,133.59,358.56,19.66,20.13,20.51,90.30,92.44,94.18,2025-10-09T16:43:29.966137
2025-10-09,16:43:25,24.14910433,120.70320067,138.7,0.185,184.35,9,0.8,12,2025-10-09,16:43:25,24.14917667,120.703146,117.1,0.259,178.31,9,0.85,12,2025-10-09,16:43:25,24.1492735,120.70322583,121.9,0.13,188.14,7,1.18,11,98.47,147.66,1.37,13.89,19.92,18.31,63.77,91.49,84.06,2025-10-09T16:43:30.168235
2025-10-09,16:43:25,24.14910433,120.70320017,138.9,0.222,184.35,9,0.8,12,2025-10-09,16:43:25,24.14917683,120.703146,117.0,0.13,178.31,9,0.85,12,2025-10-09,16:43:25,24.14927367,120.70322633,121.9,0.185,188.14,7,1.18,11,49.25,161.72,11.21,16.89,17.49,17.88,77.53,80.31,82.12,2025-10-09T16:43:30.371081
2025-10-09,16:43:25,24.14910417,120.70319867,138.8,0.13,184.35,9,1.03,12,2025-10-09,16:43:25,24.149177,120.703146,116.9,0.167,178.31,9,0.85,12,2025-10-09,16:43:25,24.14927383,120.70322667,121.9,0.185,188.14,7,1.18,11,165.97,347.34,57.62,16.92,18.09,16.96,77.68,83.08,77.88,2025-10-09T16:43:30.573611
2025-10-09,16:43:25,24.14910417,120.70319783,138.9,0.241,184.35,9,0.8,12,2025-10-09,16:43:25,24.149177,120.703146,116.8,0.167,178.31,9,0.85,12,2025-10-09,16:43:25,24.14927417,120.70322733,121.9,0.13,188.14,7,1.18,11,1.44,101.24,82.94,21.02,20.21,18.09,96.52,92.82,83.05,2025-10-09T16:43:30.776677
2025-10-09,16:43:26,24.14910383,120.703196,138.9,0.519,184.35,9,0.82,12,2025-10-09,16:43:26,24.149177,120.703146,116.8,0.148,178.31,9,0.85,12,2025-10-09,16:43:26,24.14927417,120.703228,121.9,0.037,188.14,7,1.18,11,248.94,172.96,106.84,19.52,24.92,22.74,89.65,114.44,104.43,2025-10-09T16:43:30.978992
2025-10-09,16:43:26,24.14910383,120.703195,139.0,0.13,184.35,9,0.8,12,2025-10-09,16:43:26,24.14917683,120.703146,116.7,0.259,178.31,9,0.85,12,2025-10-09,16:43:26,24.14927417,120.7032285,121.9,0.074,188.14,7,1.18,11,175.81,236.24,125.12,19.00,22.96,20.61,87.25,105.44,94.62,2025-10-09T16:43:31.181213
2025-10-09,16:43:26,24.149104,120.70319417,139.0,0.167,184.35,9,1.03,12,2025-10-09,16:43:26,24.14917683,120.703146,116.6,0.315,178.31,9,0.85,12,2025-10-09,16:43:26,24.149274,120.70322883,121.9,0.259,188.14,7,1.18,11,125.19,274.21,136.37,17.39,20.87,20.07,79.86,95.83,92.14,2025-10-09T16:43:31.384670
2025-10-09,16:43:26,24.14910367,120.703193,139.0,0.222,184.35,9,1.03,12,2025-10-09,16:43:26,24.14917667,120.703146,116.6,0.222,178.31,9,0.85,12,2025-10-09,16:43:26,24.1492735,120.70322967,121.9,0.519,188.14,7,1.18,11,91.44,292.49,150.44,16.69,18.91,20.80,76.66,86.83,95.51,2025-10-09T16:43:31.586717
2025-10-09,16:43:26,24.149103,120.70319117,139.0,0.778,184.35,9,0.8,12,2025-10-09,16:43:26,24.14917617,120.70314633,116.5,0.759,178.31,9,0.85,12,2025-10-09,16:43:26,24.1492735,120.70322967,121.9,0.519,188.14,7,1.18,11,73.16,291.08,156.06,21.41,19.99,20.66,98.33,91.78,94.85,2025-10-09T16:43:31.789381
2025-10-09,16:43:27,24.14910217,120.7031895,139.2,1.37,184.35,9,0.8,12,2025-10-09,16:43:27,24.1491755,120.70314667,116.4,1.093,178.31,9,0.85,12,2025-10-09,16:43:27,24.1492725,120.70323,122.0,1.056,188.14,7,1.18,11,98.47,296.71,161.69,19.28,20.21,18.80,88.52,92.82,86.32,2025-10-09T16:43:31.991893
2025-10-09,16:43:27,24.14910133,120.70318867,139.3,1.704,184.35,9,0.8,12,2025-10-09,16:43:27,24.1491745,120.7031465,116.3,1.574,178.93,9,0.85,12,2025-10-09,16:43:27,24.14927117,120.70322983,121.9,1.259,188.14,7,1.18,11,115.35,284.05,168.72,18.77,17.71,22.43,86.21,81.32,102.99,2025-10-09T16:43:32.194082
2025-10-09,16:43:27,24.1491,120.70318767,139.3,2.278,183.49,9,0.8,12,2025-10-09,16:43:27,24.14917333,120.7031465,116.2,1.871,177.76,9,0.85,12,2025-10-09,16:43:27,24.14926983,120.70322967,121.9,1.759,186.02,7,1.18,11,67.53,313.58,189.81,16.01,18.95,22.03,73.50,87.01,101.17,2025-10-09T16:43:32.396682
2025-10-09,16:43:27,24.149097,120.70318633,139.1,2.871,179.39,9,0.8,12,2025-10-09,16:43:27,24.14917017,120.7031465,116.2,3.167,176.91,9,0.85,12,2025-10-09,16:43:27,24.14926583,120.70322867,122.1,2.63,185.09,7,1.18,11,158.94,158.89,230.60,21.42,17.90,17.27,98.36,82.18,79.30,2025-10-09T16:43:32.799129
2025-10-09,16:43:28,24.14909533,120.70318617,139.1,3.389,179.78,9,0.99,12,2025-10-09,16:43:28,24.14916883,120.70314633,116.1,3.037,177.18,9,0.85,12,2025-10-09,16:43:28,24.14926333,120.70322817,122.1,2.834,186.92,7,1.18,11,181.44,7.01,272.79,20.55,20.19,18.71,94.34,92.69,85.91,2025-10-09T16:43:33.001433
2025-10-09,16:43:28,24.1490935,120.70318617,139.0,3.519,179.07,9,0.99,12,2025-10-09,16:43:28,24.14916733,120.70314633,116.1,3.315,178.87,9,0.85,12,2025-10-09,16:43:28,24.14926133,120.70322817,122.0,3.315,183.49,7,1.18,11,23.94,139.20,299.51,18.96,19.21,18.68,87.08,88.21,85.77,2025-10-09T16:43:33.204731
2025-10-09,16:43:28,24.149091,120.70318517,138.9,4.074,178.87,9,0.99,12,2025-10-09,16:43:28,24.14916583,120.70314633,116.0,3.111,177.55,9,0.85,12,2025-10-09,16:43:28,24.14925983,120.70322817,122.0,3.371,182.4,7,1.18,11,317.85,199.66,305.13,22.09,21.73,21.77,101.42,99.80,99.96,2025-10-09T16:43:33.409585
2025-10-09,16:43:28,24.14908883,120.7031845,139.0,4.297,182.15,9,0.99,12,2025-10-09,16:43:28,24.14916417,120.703147,115.9,3.889,168.44,9,0.85,12,2025-10-09,16:43:28,24.1492585,120.70322817,122.1,3.537,183.07,7,1.45,11,298.16,201.07,303.73,19.94,20.13,22.45,91.54,92.42,103.09,2025-10-09T16:43:33.612417
2025-10-09,16:43:28,24.14908567,120.70318417,138.9,5.482,183.23,9,0.99,12,2025-10-09,16:43:28,24.14916167,120.7031475,115.9,4.852,165.99,9,0.85,12,2025-10-09,16:43:28,24.14925467,120.70322817,122.1,5.352,181.74,7,1.45,11,284.10,203.88,305.13,16.29,20.31,17.91,74.81,93.28,82.24,2025-10-09T16:43:33.815197
2025-10-09,16:43:29,24.14908217,120.703184,138.9,6.63,183.24,9,1.03,12,2025-10-09,16:43:28,24.14916167,120.7031475,115.8,4.852,165.99,9,0.85,12,2025-10-09,16:43:29,24.14925033,120.70322783,122.0,6.501,181.28,7,1.18,11,298.16,212.32,302.32,21.19,21.92,21.65,97.29,100.68,99.41,2025-10-09T16:43:34.017748
2025-10-09,16:43:29,24.14907817,120.703184,138.7,7.593,182.9,9,1.03,12,2025-10-09,16:43:29,24.149158,120.70314733,115.8,6.038,170.77,9,0.85,12,2025-10-09,16:43:29,24.149248,120.70322817,121.9,5.26,180.19,8,1.1,11,14.10,195.45,292.48,19.58,19.17,21.13,89.93,88.02,97.04,2025-10-09T16:43:34.220028
2025-10-09,16:43:29,24.14907333,120.70318317,138.6,8.778,184.72,9,1.03,12,2025-10-09,16:43:29,24.14915367,120.70314717,115.7,7.63,176.73,9,0.85,12,2025-10-09,16:43:29,24.14924283,120.703228,122.0,8.001,181.57,8,1.18,11,104.10,95.60,289.67,20.43,20.27,22.51,93.81,93.07,103.37,2025-10-09T16:43:34.422638
2025-10-09,16:43:29,24.14907333,120.70318317,138.5,8.778,184.72,9,1.03,12,2025-10-09,16:43:29,24.14914917,120.703147,115.6,8.315,178.88,9,0.85,12,2025-10-09,16:43:29,24.14923817,120.70322783,121.9,8.871,183.1,8,1.02,11,288.31,21.07,288.26,16.90,19.19,21.12,77.58,88.12,96.99,2025-10-09T16:43:34.624945
2025-10-09,16:43:29,24.14906833,120.7031825,138.4,9.445,185.46,9,1.03,12,2025-10-09,16:43:29,24.14914417,120.70314717,115.4,9.223,178.47,9,0.85,12,2025-10-09,16:43:29,24.14923817,120.70322783,121.9,8.871,183.1,8,1.18,11,133.63,234.83,277.00,17.69,17.74,22.23,81.21,81.45,102.09,2025-10-09T16:43:34.828558
